time,seconds_elapsed,z,y,x
1683752229489939200,0.029939208984375,-0.6994511681586504,0.2035521492987871,-0.12761764126196504
1683752229500015000,0.04001513671875,-0.6551520077049732,0.16002192739099264,-0.004109627275913953
1683752229510090200,0.05009033203125,-0.5445312400817871,-0.01651186660081148,0.06708944973684847
1683752229520165000,0.0601650390625,-0.455462379053235,-0.13326777597814798,0.17887670385614035
1683752229530240000,0.070239990234375,-0.4279325670927763,-0.05059738381505012,0.7255329002026468
1683752229540315100,0.080315185546875,-0.30672026282846926,0.16315642602443695,0.8496436293222009
1683752229550390000,0.09039013671875,-0.2695540229946375,-0.001130173073709011,0.8506552175175398
1683752229560465200,0.100465087890625,-0.6369564258009195,-0.49209758075028653,0.9676752577237784
1683752229570540300,0.110540283203125,-0.8924287319511175,-0.252436007194221,0.8138610258664936
1683752229580615200,0.120615234375,-0.7399468446761369,-0.0023678981751203538,0.627706586092338
1683752229590691000,0.130691162109375,-0.4432382727742195,0.1856938365250826,0.6575692249145358
1683752229600766200,0.14076611328125,-0.03582008592188358,0.16812983052283526,0.5736143458988517
1683752229610841000,0.150841064453125,0.07422960381507873,0.08036240748167038,0.2574028358213603
1683752229620916200,0.160916259765625,0.24467209519445896,0.11073913330584764,-0.22783260407447814
1683752229630991000,0.1709912109375,0.45868426370918747,0.1556140478208661,-0.6243852596499025
1683752229641066000,0.18106591796875,0.5594453160971403,0.2357140049740672,-0.8339527237154543
1683752229651141000,0.19114111328125,0.5766647464454173,0.3468079430669546,-0.7021148344099521
1683752229661216000,0.201216064453125,0.5713362448990345,0.4200444441914558,0.08698489436134696
1683752229671292200,0.211292236328125,0.5443190586358309,0.511864065232873,0.10504311362132429
1683752229681367000,0.221366943359375,0.3203606656461954,0.5060471956476569,0.1384466399207711
1683752229691442000,0.23144189453125,-0.16474048034548758,0.4007373939141631,0.0699446199722588
1683752229701517000,0.24151708984375,-0.5561766696900129,0.2436538580626249,-0.0034067397035658356
1683752229711592200,0.25159228515625,-0.5148234995603561,0.26833149546235796,0.049483723484724754
1683752229721667000,0.2616669921875,0.06712824737727642,0.504413164705038,0.31224516372978683
1683752229731742200,0.2717421875,0.4092354654073715,0.7724582444414496,0.7271319328971206
1683752229741817000,0.281817138671875,0.30882629519701005,0.9626727732613682,1.1930232053756713
1683752229751892000,0.29189208984375,0.4954226335197687,0.8569707573398947,1.3712073969230054
1683752229761968000,0.301968017578125,0.38437048874199387,0.6255193782463669,1.2753716721080244
1683752229772043000,0.31204296875,0.15591770694255827,0.5321624646350741,1.031599156101793
1683752229782118100,0.3221181640625,-0.017488894939422607,0.5172925200223922,0.7625441686704755
1683752229792193300,0.332193359375,-0.24235212781429288,0.5403600918769836,0.5375374356716871
1683752229802268000,0.342267822265625,-0.6373106460660696,0.399090795750916,0.3100384474657476
1683752229812342500,0.352342529296875,-1.2633598934054373,0.10220482145547866,0.1053388816975057
1683752229822417700,0.362417724609375,-1.6292366940796374,-0.08242752331793307,0.17171733362078664
1683752229832492800,0.372492919921875,-1.3284271165996788,-0.4509487010210752,0.28007293279096485
1683752229842568700,0.382568603515625,-0.9149597127109765,-0.6905027225494385,0.45907881598472594
1683752229852643800,0.392643798828125,-0.49650516805946826,-0.9199214267715811,0.3484416817486286
1683752229862718700,0.40271875,-0.5030851309716701,-1.234941608172655,-0.22124796498715876
1683752229872793600,0.412793701171875,-0.6694862380057572,-1.7195850735247133,-1.1095536256588996
1683752229882868700,0.42286865234375,-0.6837269448041915,-2.4580545391246673,-2.0747867509275673
1683752229892943600,0.432943603515625,-0.9011743484646081,-2.453559273532033,-1.5032904931612312
1683752229903018800,0.443018798828125,-0.6816407861799001,-0.1857405982762575,1.523244316909462
1683752229913094000,0.453093994140625,-0.5974924304187298,-0.1509215060904622,2.472257252000272
1683752229923168800,0.463168701171875,-0.6117039111226796,-1.4003718243479728,2.2367641963005065
1683752229933244700,0.47324462890625,-0.40554771680533885,-1.7864134611725806,1.9869031541608273
1683752229943319800,0.48331982421875,-0.30633330933749675,-1.4209461180821061,1.9030662024363874
1683752229953394700,0.493394775390625,-0.4671136538803577,-1.4353756254509091,1.5839397547602652
1683752229963469800,0.5034697265625,-0.8263724977195263,-1.6203659898817537,1.4714324427381158
1683752229973545000,0.513544921875,-1.3370406311661005,-1.454167711943388,1.9397493349283932
1683752229983619600,0.52361962890625,-1.722232373163104,-1.440687175862491,2.633526549103856
1683752229993694700,0.53369482421875,-1.7454636111468076,-1.401736682960391,2.888459049288928
1683752230003769600,0.54376953125,-1.15712420899868,-1.170612051603198,2.740876332232356
1683752230013845800,0.553845703125,-0.4225970512837171,-0.7658435024768113,2.6813480384647845
1683752230023921000,0.5639208984375,0.03834112883210182,-0.7784814502537251,2.4896947090134023
1683752230033995500,0.57399560546875,-0.009808861830830573,-1.2275573431402445,1.8040207217946647
1683752230044070700,0.584070556640625,0.41197219689488407,-0.5509603963464498,1.9126973696127534
1683752230054145800,0.594145751953125,0.5374234539031982,0.04136719865500927,1.87337073687464
1683752230064220700,0.604220703125,0.3401245197802782,-0.21402385895252227,0.9639289108023047
1683752230074295800,0.6142958984375,0.4327922820836305,-0.15829729555547237,0.3665872870311141
1683752230084370700,0.62437060546875,0.9001350685447453,0.5353051465749741,0.4977414318561554
1683752230094446600,0.634446533203125,1.203698913168907,0.7682032173454761,0.6286613295339047
1683752230104521700,0.644521728515625,1.781819119119644,0.7853437372386455,0.6904474852308631
1683752230114596600,0.6545966796875,2.233268170878291,1.0342840112715959,1.068234211668372
1683752230124671700,0.664671630859375,2.5911767691522836,1.1308727464109658,1.2019691667668522
1683752230134747000,0.674746826171875,2.5382746155261993,0.3691290804684162,0.17783157871738076
1683752230144821800,0.68482177734375,2.3290005814492702,0.8417495150715112,0.5518533996634185
1683752230154896600,0.694896728515625,2.0755442912966013,1.206867606332898,0.2647138894870877
1683752230164971800,0.7049716796875,1.9040175118118523,1.1860592115819453,-0.413420496007055
1683752230175047700,0.715047607421875,2.2039637504607437,1.2792284936666487,-1.0044720797233282
1683752230185122800,0.725122802734375,1.8814193110346793,1.5105758278638124,-1.2686509855508803
1683752230195197700,0.73519775390625,1.1370219166904687,1.5938076533019543,-1.8128234753228722
1683752230205272600,0.7452724609375,1.6381582516819237,1.5834510944604874,-1.6787290392622352
1683752230215347700,0.75534765625,1.1036387025266885,1.3188555706560612,-1.259045975729078
1683752230225422600,0.765422607421875,0.8410147710561752,1.3972878868579863,-1.2017029170460998
1683752230235497700,0.775497802734375,0.1873784286111593,1.4506132343322038,-0.49993952642232176
1683752230245572900,0.78557275390625,-0.5523889678448438,1.1514257050961256,-0.42644831988438964
1683752230255647700,0.795647705078125,-0.7656301519870757,0.9900082316935062,-0.9178631790675222
1683752230265723600,0.8057236328125,-0.7596995928943157,1.0856406890213488,-1.0721923016443848
1683752230275798800,0.815798828125,-0.816415751850605,1.0903063427448272,-1.3720619679257273
1683752230285873700,0.825873779296875,-0.67852645355165,1.098688386642933,-1.385416685669869
1683752230295948800,0.83594873046875,-0.3116390145301819,1.0909230133384467,-1.4044757525354623
1683752230306024000,0.84602392578125,0.05386953735351562,0.9790431855648756,-1.393550015503913
1683752230316098800,0.856098876953125,0.32891222089231015,0.6848270150005817,-0.9773618083491921
1683752230326173700,0.866173583984375,0.7773468932658434,0.5588906048238277,-0.7591497769918293
1683752230336248600,0.87624853515625,0.7999842570096254,0.3564782732099294,-0.24270948988460003
1683752230346324700,0.88632470703125,0.5710381387352943,0.2621317640393972,0.3368099884048104
1683752230356399900,0.89639990234375,0.5697592048406601,-0.17690730347931383,0.12533946719691155
1683752230366474800,0.906474853515625,0.2280909627497196,-0.4156897561132908,-0.11974325462505221
1683752230376549600,0.916549560546875,0.03272621155977249,0.13011691073179243,-0.14725889192968605
1683752230386624800,0.926624755859375,-0.11763853743076323,0.3716144675433635,-0.6138790632046759
1683752230396699600,0.93669970703125,-0.19438392345905303,0.3956587754756212,-1.1966126081697641
1683752230406774800,0.94677490234375,-0.19789047027528284,0.5358861613333225,-1.341759037990123
1683752230416849700,0.956849609375,-0.12253040112555026,0.5845932013571262,-1.1538687143340707
1683752230426924800,0.9669248046875,-0.19487199923694132,0.4908557639956474,-0.6808582575000822
1683752230437000700,0.977000732421875,-0.3454740641146898,0.39373043776154515,-0.11962934592179954
1683752230447075600,0.98707568359375,-0.18672434861660003,0.3230471282511949,0.08181487131230533
1683752230457150700,0.997150634765625,0.019660978281497953,0.28776772507727144,-0.030275676602497695
1683752230467225900,1.007225830078125,0.24629531248211858,0.2601987501502037,-0.2722466961447149
1683752230477300700,1.01730078125,0.4184411006480455,0.24939035588800906,-0.5383537935558707
1683752230487375600,1.027375732421875,0.4892044896572828,0.23528642721176146,-0.6291364727649837
1683752230497450800,1.03745068359375,0.4713911850690841,0.21624328856766223,-0.5750616951629519
1683752230507525600,1.047525634765625,0.4508487477779388,0.11486322749853134,-0.4193588730800897
1683752230517601800,1.057601806640625,0.5423164866417646,0.08756430168449879,-0.10154829377550631
1683752230527677000,1.067677001953125,0.5722568668752909,0.21266396877616642,0.4229559111913666
1683752230537751600,1.07775146484375,0.8277285885035991,0.09613689971864223,0.679418872346729
1683752230547826700,1.08782666015625,0.9792664729267359,-0.1799652297452092,0.37792934977859255
1683752230557901600,1.097901611328125,0.7756576250046491,0.062136430439352984,0.20616013984009623
1683752230567976700,1.107976806640625,0.5746393780976533,0.1900409258186817,-0.17189217873103915
1683752230578051800,1.1180517578125,0.21503449729979038,0.18897738824039698,-0.5957015284139663
1683752230588126700,1.128126708984375,-0.18858371274769306,0.3288525996595621,-0.8273343284890056
1683752230598202600,1.13820263671875,-0.3087403704792261,0.443865757022798,-0.9134928550288081
1683752230608277800,1.14827783203125,-0.23787878179252148,0.45607904964685436,-0.8612820446677506
1683752230618352600,1.1583525390625,0.003551555001735687,0.5020823836699128,-0.8065378433715552
1683752230628427800,1.168427734375,0.11761515655517578,0.49961803938299415,-0.9088605190530419
1683752230638503000,1.1785029296875,0.13396832546293735,0.5184124639630318,-1.0065727783296257
1683752230648577800,1.188577880859375,0.20859131250977514,0.605136515431106,-1.0127681989036499
1683752230658652700,1.198652587890625,0.1069435404151678,0.6390136505916715,-0.8893572155512869
1683752230668727600,1.2087275390625,-0.15382862570881842,0.630045623499155,-0.8743921400010586
1683752230678803700,1.2188037109375,-0.29800679501891136,0.5693748816981912,-0.9540927956383675
1683752230688878800,1.22887890625,-0.3586135316729545,0.5758747651115059,-1.0770035743836313
1683752230698953700,1.23895361328125,-0.3076110741883516,0.5795844332844019,-1.0498769363965839
1683752230709028600,1.249028564453125,-0.022847207102179527,0.5190238738596439,-0.8355739682417362
1683752230719103700,1.259103759765625,0.43671150135397907,0.49129123280346393,-0.7159125466812402
1683752230729178600,1.2691787109375,0.8014268570333719,0.4494388809800148,-0.6315063437014817
1683752230739253800,1.279253662109375,0.7229869420468806,0.3874327989220619,-0.6699875385913997
1683752230749328600,1.28932861328125,0.23817162725925445,0.4459674054771661,-0.6588832301225512
1683752230759403800,1.29940380859375,-0.34646365967392917,0.508393174251914,-0.6425652786586433
1683752230769479700,1.309479736328125,-0.8281646418333053,0.5705205446019769,-0.6823275263350457
1683752230779554600,1.319554443359375,-1.2527701103299855,0.6297589155122637,-0.6681035514757037
1683752230789629700,1.329629638671875,-1.4450468323767185,0.5376213145628571,-0.5976884644474834
1683752230799704800,1.339704833984375,-1.4353110357820986,0.3821443371251225,-0.5050149299904704
1683752230809780200,1.3497802734375,-1.2015759296655655,0.21985943323820828,-0.2991697013184428
1683752230819855000,1.359855224609375,-0.9570727612972258,0.11137158599048852,-0.12881496128775177
1683752230829930000,1.369929931640625,-0.9532704464048146,-0.01668780768960714,-0.03216302471905946
1683752230840005000,1.380005126953125,-1.2501175499945878,-0.06974690544307231,0.006298807883262634
1683752230850081300,1.390081298828125,-1.6090332794845104,-0.06333060865998268,-0.14354798164777458
1683752230860156200,1.40015625,-1.8992273549258707,-0.08596358848959207,-0.2538019069862552
1683752230870231000,1.41023095703125,-1.932321230754256,-0.09745032040476799,-0.2930183390818536
1683752230880306000,1.420305908203125,-1.813697773939371,-0.14684563495367764,-0.22188567836880682
1683752230890381000,1.430381103515625,-1.566761825466156,-0.21929098570048808,-0.13614325834922492
1683752230900456200,1.440456298828125,-1.397769532895088,-0.2941103721022606,-0.07395042154751717
1683752230910531000,1.450531005859375,-1.3127408871680497,-0.3712307289227843,0.0652767560253851
1683752230920606200,1.460606201171875,-1.1293126574873924,-0.3658130877882242,0.1993415823990479
1683752230930682000,1.47068212890625,-0.9216711930483579,-0.35977000823169947,0.391275957281515
1683752230940757000,1.480757080078125,-0.7401870831727981,-0.37291999718397856,0.5621423000961542
1683752230950832000,1.49083203125,-0.6139473061352968,-0.39738545313775536,0.6876515709020197
1683752230960907000,1.500906982421875,-0.46197278386056423,-0.3557096269249916,0.7562133582137525
1683752230970982100,1.510982177734375,-0.39660628545880316,-0.3136258044332266,0.7630719919368624
1683752230981057300,1.521057373046875,-0.4053092318743467,-0.30126667359769344,0.7257498308889567
1683752230991132000,1.5311318359375,-0.2849965067982673,-0.25575229213535783,0.6563895866759121
1683752231001207000,1.54120703125,-0.14350187748372553,-0.21422493448257446,0.6423604768015444
1683752231011283200,1.551283203125,-0.02126373730301857,-0.11558306620568036,0.5965200051899999
1683752231021358000,1.561358154296875,0.13621639665067195,-0.008109656697511673,0.3811002348996699
1683752231031433200,1.57143310546875,0.41291503070294855,0.048930619646608824,0.1955462452366948
1683752231041508000,1.581508056640625,0.6699193687260151,0.09434592464864254,0.07949965317249298
1683752231051583000,1.5915830078125,0.8214373794049024,0.08416969081014394,0.02703939809501171
1683752231061658000,1.601658203125,0.8723281932085752,0.06670534579008817,0.05537132021859288
1683752231071733000,1.61173291015625,0.7208218729674816,0.053530514657497405,0.18389679704047737
1683752231081808100,1.62180810546875,0.36988603631556033,0.07139701073765754,0.3911478008572012
1683752231091884000,1.631884033203125,0.054909401795268056,0.12393442270457744,0.4099266625419259
1683752231101959000,1.641958984375,-0.22373569014966488,0.11857698732465505,0.30176454011723397
1683752231112034000,1.652033935546875,-0.4125719163537025,0.08162614380717277,0.17927191371880472
1683752231122109200,1.662109130859375,-0.4299181879520416,0.030754911486804485,0.04188245470076799
1683752231132184000,1.67218408203125,-0.3765805655181408,-0.0745250796303153,0.0015545359656214714
1683752231142259200,1.68225927734375,-0.3554787407785654,-0.15512480299919842,0.03578516073897481
1683752231152334300,1.692334228515625,-0.5954208848416805,-0.17073650588989256,0.06798303757570684
1683752231162409000,1.702408935546875,-1.0824982993423937,-0.16339403417259454,0.15525807399004696
1683752231172485000,1.712485107421875,-1.5419687449932098,-0.1283998776808381,0.1758654662761837
1683752231182560300,1.722560302734375,-1.8135902219116686,-0.08204378469735384,0.16968641231507062
1683752231192635100,1.73263525390625,-1.8512585660487413,-0.09359218367189169,0.16104359858892858
1683752231202710300,1.742710205078125,-1.6934715581029653,-0.15967559817135332,0.14046331350542604
1683752231212785000,1.752784912109375,-1.4785516270935535,-0.19407003520429134,0.09767616504989564
1683752231222860000,1.762860107421875,-1.3988240103840828,-0.19826514880657195,0.09927987391948699
1683752231232935200,1.77293505859375,-1.4996043519943951,-0.20658172625303267,0.1795836830817163
1683752231243010000,1.783010009765625,-1.6884873399496076,-0.14419745853245258,0.20632161401212215
1683752231253086200,1.793086181640625,-1.7432997111111879,-0.11752923183739185,0.11067520122416317
1683752231263161000,1.8031611328125,-1.5863099910229443,-0.09436199900060892,-0.03642389703392982
1683752231273236000,1.813236083984375,-1.245626668316126,-0.08028525059223175,-0.1956178491681814
1683752231283311000,1.82331103515625,-0.8485305535137653,-0.08499445119649171,-0.3020550474964082
1683752231293386000,1.833385986328125,-0.4776531680732965,-0.0819490921512246,-0.3226809983525425
1683752231303461000,1.843461181640625,-0.24408465069532392,-0.057626844060420984,-0.2883097229994833
1683752231313536300,1.853536376953125,-0.15431202531158922,-0.04934709149301052,-0.26879385227710006
1683752231323611100,1.863611083984375,-0.13170330314040182,-0.0058329439371824264,-0.23237397383116185
1683752231333687000,1.87368701171875,-0.1882411829203367,0.055745268097519875,-0.19122414425387976
1683752231343762200,1.88376220703125,-0.2337041264563799,0.11131108797490596,-0.17327347702160475
1683752231353837000,1.893837158203125,-0.2533539988219738,0.1517585414364934,-0.1993091779667884
1683752231363912200,1.903912109375,-0.2782230671405792,0.18909049322605131,-0.10923040924333036
1683752231373987000,1.913987060546875,-0.32645079921483994,0.2080982682958245,0.05786649803519248
1683752231384062000,1.92406201171875,-0.28033962090313436,0.2114899565607309,0.15717939744144677
1683752231394137000,1.93413720703125,-0.1529313846081495,0.22000381014496087,0.26580658009462055
1683752231404213200,1.944213134765625,-0.012664251261949538,0.23200141419172285,0.26566278770975765
1683752231414288100,1.9542880859375,0.19951719469428061,0.2232221876695752,0.1654582001607865
1683752231424363300,1.96436328125,0.3754161979138851,0.23109072908759115,0.0760440328259021
1683752231434438000,1.97443798828125,0.616819062179327,0.26370295887887474,-0.015062106183916329
1683752231444513000,1.984512939453125,0.8634943138897418,0.24922902784645556,-0.05998487842865288
1683752231454588200,1.994588134765625,1.0617582936525345,0.20339900456368923,-0.057538435124605894
1683752231464663000,2.0046630859375,1.1840560550659893,0.20451193424165248,-0.02134710473753512
1683752231474738200,2.01473828125,1.1494283937990666,0.20418430972248314,0.0836583072219044
1683752231484814000,2.02481396484375,1.1724164706766604,0.2206771793618798,0.16059373592957854
1683752231494889000,2.034888916015625,1.2599445320039986,0.27133213858306404,0.1718019431643188
1683752231504964000,2.044964111328125,1.33946581248641,0.3170493491411209,0.1273664429798722
1683752231515039200,2.055039306640625,1.529433673068881,0.3306590645596385,-0.0346718657348305
1683752231525114000,2.065114013671875,1.7778724273204802,0.380804320693016,-0.15540771159380673
1683752231535189200,2.075189208984375,1.9454870017975567,0.4000961734011769,-0.24392741430699824
1683752231545264000,2.08526416015625,2.043810013383627,0.3309606778547168,-0.2915646331422031
1683752231555339000,2.095339111328125,2.221667749455571,0.264978093381226,-0.28116671937704085
1683752231565415200,2.105415283203125,2.4187965877085924,0.23649258813112972,-0.1417639477752149
1683752231575490000,2.115489990234375,2.421083821862936,0.2466384268313646,-0.031136604280769822
1683752231585565200,2.125565185546875,2.175266063764691,0.24235212781429288,0.08580152979567647
1683752231595640000,2.13564013671875,1.7657547040253876,0.2436895138978958,0.22149010317996143
1683752231605715000,2.14571484375,1.2923568553090095,0.28098376402556896,0.37334494459778067
1683752231615790000,2.1557900390625,0.7428115864574909,0.358562386007607,0.3915286899335682
1683752231625865000,2.165864990234375,0.21495207971334457,0.3138353555306792,0.23278993422091007
1683752231635940000,2.175940185546875,-0.06833177794814109,0.2680406958222389,0.10161679243445396
1683752231646016000,2.18601611328125,-0.2491922029674053,0.22727146306037901,0.013084814761579036
1683752231656091100,2.196091064453125,-0.36427345713078974,0.18241934489905834,0.018176584942638872
1683752231666166000,2.206166015625,-0.3216770089417696,0.08157266005426644,-0.05207943906635046
1683752231676241200,2.2162412109375,-0.27683950382769107,0.025742928543686865,-0.10357698659151791
1683752231686316000,2.22631591796875,-0.2713479206740856,-0.007217968554794788,-0.17645517579764128
1683752231696391200,2.23639111328125,-0.26867081041932106,-0.061463353483378884,-0.2088704217121005
1683752231706466300,2.24646630859375,-0.37242929105758665,-0.06984218251109123,-0.10892068570703267
1683752231716541000,2.256541015625,-0.31165245853364465,-0.12013561494350433,-0.13847674279808997
1683752231726617000,2.2666171875,-0.2339864505290985,-0.1845098874375224,-0.07951002843603491
1683752231736692200,2.276692138671875,-0.11014555132687091,-0.20683453197032212,-0.13398133107498286
1683752231746767000,2.28676708984375,-0.03312485548853874,-0.3622290918216109,-0.17094488794356583
1683752231756842200,2.29684228515625,-0.008563830205798149,-0.25851006641089913,0.10058832616955041
1683752231766916900,2.306916748046875,-0.03944295259416103,-0.22565701360106466,0.1811795739710331
1683752231776992000,2.316991943359375,-0.23769991809427737,-0.2636415840804577,0.1842190877974033
1683752231787067100,2.327067138671875,-0.39449031621813774,-0.17674714448153972,0.2095239171847701
1683752231797143000,2.33714306640625,-0.5059399358808994,-0.054532092915475366,0.4108835248753428
1683752231807218200,2.34721826171875,-0.7088777526736258,0.019761223785579204,0.5960974689289927
1683752231817293000,2.35729296875,-0.5568605603009462,0.3067807608440518,0.8357761397503316
1683752231827368000,2.367367919921875,-0.5909527995169163,-0.17802783194184302,0.21097966895103454
1683752231837442800,2.37744287109375,-0.23744331298470495,-0.44067046811282634,-0.08554127142429352
1683752231847518000,2.38751806640625,0.3256669553607702,0.04222761487662792,0.19146102174967528
1683752231857593000,2.397593017578125,0.49001288343071936,0.05391074614673853,-0.005777414357662201
1683752231867668000,2.40766796875,0.46990182329416275,-0.1121916702017188,-0.2292358950011432
1683752231877743900,2.417743896484375,0.3069756988942623,-0.043002106380462646,-0.2391650222107768
1683752231887819000,2.427819091796875,0.16134031651318073,0.055090603581070895,-0.20908757159411906
1683752231897894000,2.437893798828125,-0.03498480414152145,0.04320522773712873,-0.25678718814104795
1683752231907969000,2.447968994140625,-0.25895605661273,0.01979483379423618,-0.2493298578724265
1683752231918044200,2.458044189453125,-0.43753100104331966,0.07481032631248236,-0.27993483949452636
1683752231928119000,2.468119140625,-0.5588584561198949,0.1438958452373743,-0.330534123005718
1683752231938194000,2.47819384765625,-0.771262020394206,0.22037352024018764,-0.33905162985175846
1683752231948268800,2.488268798828125,-0.6614005467057228,0.4776470305934548,-0.13451967573538423
1683752231958345000,2.498344970703125,-0.4608417340040207,0.5718626068606972,0.021420535299926994
1683752231968420000,2.508420166015625,-0.520396331256628,-0.15989420935809612,-0.6678925390735269
1683752231978495000,2.518494873046875,-0.20598960557878015,-0.5040057529479265,-0.9212699187710881
1683752231988569900,2.52856982421875,0.22694471532404423,-0.5203171285405754,-1.0020081738278268
1683752231998645000,2.53864501953125,0.45813481313288207,-0.3217573807016015,-0.8140009457938373
1683752232008720000,2.548719970703125,0.45160979527831074,0.08865648083537817,-0.4725432777136564
1683752232018795000,2.558794921875,0.30658290018439294,-0.16444938844442367,-0.8886039129659533
1683752232028871200,2.56887109375,-0.04103343665599823,-0.5973416237711906,-0.7168456628128885
1683752232038945800,2.57894580078125,0.09074643885195255,-0.6523553627237677,-0.5978599485568702
1683752232049021000,2.58902099609375,0.14418985974788665,-0.3928510245785117,-0.589950052215159
1683752232059095800,2.599095703125,0.04380056328177452,-0.1590557127073407,-0.2555358729057014
1683752232069171000,2.6091708984375,0.053770168632268904,-0.5183312154203653,-0.45191213922575113
1683752232079246000,2.61924609375,-0.019781974312663077,-0.5805383730083704,-0.5609082282565534
1683752232089321000,2.629321044921875,-0.03911678937971592,-0.33101913004368544,-0.3515345331974327
1683752232099396000,2.63939599609375,-0.20000760855972766,-0.2605065009251237,-0.2637541045442223
1683752232109472000,2.649471923828125,-0.31922026343941684,-0.34966391701996324,-0.38740459574088454
1683752232119547000,2.659546875,-0.18947101697623728,-0.3162216661453247,-0.5425099633872509
1683752232129622000,2.6696220703125,0.05143558820486068,-0.2734305721670389,-0.6459669768609106
1683752232139697200,2.679697265625,0.3368552888512611,-0.30647710172235965,-0.598288256971538
1683752232149772000,2.68977197265625,0.6500643291771412,-0.27100948249995704,-0.517613714800775
1683752232159847000,2.699846923828125,0.8421224400371312,-0.2793400884717703,-0.47744200954064725
1683752232169921800,2.709921875,0.7414099029660225,-0.29732407345175743,-0.37240459500774736
1683752232179998000,2.719998046875,0.3933879079341888,-0.25091800384670493,-0.2614455353409052
1683752232190073000,2.730072998046875,0.21298224094510076,-0.17834581184983253,-0.300711670063436
1683752232200148000,2.74014794921875,0.15615502282977103,-0.0828232446372509,-0.5049401111885905
1683752232210222800,2.750222900390625,0.18683657681941984,-0.012431319288909434,-0.8423439738333225
1683752232220298000,2.760298095703125,0.2860965769946575,0.09226473446041344,-0.9916267728060484
1683752232230372900,2.770372802734375,0.4958785605937242,0.09134148213565349,-0.878819747184962
1683752232240448000,2.780447998046875,0.6300637436777353,0.09583616320639848,-0.6569032352864742
1683752232250523100,2.790523193359375,0.3758382227182388,0.1388929223835468,-0.42929274953007696
1683752232260598800,2.800598876953125,0.300353650406003,0.06882394537925719,-0.37541590565294025
1683752232270674000,2.810673828125,0.4794353753149509,-0.012805997820198535,-0.45871977341398595
1683752232280749000,2.8207490234375,0.7460089211940765,-0.03873626562952995,-0.47682300085946916
1683752232290824000,2.830823974609375,0.8945674975454807,-0.26992431761175395,-0.7152703763201832
1683752232300899000,2.840899169921875,1.0293746119201184,-0.39913375810980795,-0.7788717647455632
1683752232310974000,2.850973876953125,1.1370014584243298,-0.1473603064775467,-0.5234944434024393
1683752232321049000,2.861049072265625,1.039485087046027,-0.24187048177719114,-0.5714614787138999
1683752232331125000,2.871125,1.107239357367158,-0.38767975942045446,-0.5473265698887407
1683752232341200000,2.881199951171875,1.173608895331621,-0.5067942146226764,-0.49528176374435423
1683752232351275000,2.89127490234375,1.2121341485589743,-0.5958449554726482,-0.31230449270159005
1683752232361350100,2.90135009765625,1.1457897450357675,-0.8322367135778069,-0.3576519931644201
1683752232371425000,2.911425048828125,1.016911436188221,-0.7395932089328765,-0.32587387610971924
1683752232381500000,2.9215,0.4698053771823644,-0.7026280446290969,-0.5688084799870848
1683752232391574800,2.93157470703125,-0.11803893492519855,-0.5872296873405576,-0.9568778232470154
1683752232401650000,2.94164990234375,-0.5054401696652173,-0.48289282229244707,-1.1530655812576411
1683752232411726000,2.95172607421875,-0.612988105714321,-0.24151538472920656,-1.150231526875496
1683752232421801200,2.96180126953125,-0.6059995620012283,-0.24908114380836485,-1.1762000808686017
1683752232431875800,2.971875732421875,-0.21132395234405993,-0.24912293712347744,-0.7904153414145112
1683752232441951000,2.981950927734375,0.31890345257520675,-0.4453182939186692,-0.7280781277060508
1683752232452025900,2.99202587890625,0.671952335858345,-0.7532289355754852,-0.6923433819800615
1683752232462101000,3.00210107421875,1.2214923440128564,-0.4930842537000775,-0.4811927403762936
1683752232472176000,3.012176025390625,1.3245137425482272,-0.6357742302790284,-0.7909571932062506
1683752232482251800,3.022251708984375,1.161794538897276,-0.6380123645946383,-0.9818658417701721
1683752232492327000,3.032326904296875,0.7767331452816725,-0.43577948120087384,-1.1489148913189768
1683752232502402000,3.042402099609375,0.09003975188732147,-0.12428367453366518,-1.1760559962227939
1683752232512477000,3.052476806640625,-0.401845355156064,0.5537471044555307,-1.6755749591454863
1683752232522552000,3.062552001953125,-0.9482523259818554,0.4082490847185254,-1.5097338240817189
1683752232532627000,3.072626953125,-0.9401099360585212,-0.11221358977258204,-1.02405604724586
1683752232542702000,3.0827021484375,-0.2034171247422695,0.09968670115470886,-1.163728137308359
1683752232552777000,3.09277685546875,0.7847977937936782,0.6413011770069599,-0.9517796233251691
1683752232562852900,3.102852783203125,1.2378384986579418,0.5650400673642754,-0.4397749805778265
1683752232572928000,3.112927978515625,1.8652461748689413,0.38743104535639283,-0.5402338351488113
1683752232583003100,3.123003173828125,3.038114480966329,-0.025073650979995726,-0.9829276257827877
1683752232593078000,3.133078125,3.8693607222020625,-0.13699936372190713,-1.0465694923490285
1683752232603153000,3.14315283203125,3.9924902582645414,0.10312193630039691,-0.8554986389607191
1683752232613228000,3.15322802734375,3.5245582737386223,0.21814181566536425,-0.9891232655525207
1683752232623303000,3.163302978515625,2.4660160195231438,0.42133419174104925,-0.9784230078399181
1683752232633379000,3.173379150390625,1.5179817202061414,0.6502531297475099,-0.8180056513905525
1683752232643454000,3.183453857421875,0.9568237549722194,0.833193283650279,-0.9151543585002422
1683752232653528800,3.19352880859375,0.5286205542445183,1.0195961452275515,-1.2182973473638294
1683752232663604000,3.20360400390625,0.5325912114411592,1.1288932630315422,-1.484475756445527
1683752232673678800,3.213678955078125,0.7480974179059267,1.1144564491391182,-1.6660013673752545
1683752232683754000,3.22375390625,1.1094523572415114,1.17688426374048,-1.8153040400922298
1683752232693829000,3.2338291015625,1.6328227358728646,1.1453642131000756,-1.859054919013381
1683752232703904800,3.24390478515625,2.180837141895294,0.9162672881782055,-1.7909587033867835
1683752232713980000,3.25397998046875,2.9826193882375955,0.7307052613392472,-1.6727338905006646
1683752232724055000,3.264054931640625,3.86651176251173,0.5915861289843917,-1.5202029033869504
1683752232734130000,3.2741298828125,4.4686073028117415,0.6082293668799102,-1.5987369263976812
1683752232744205000,3.284205078125,4.6529877186506985,0.8894619911000132,-2.247196158465743
1683752232754280200,3.2942802734375,4.219025808265805,1.3244279639609158,-3.045542000618577
1683752232764355000,3.30435498046875,3.2544378490328785,2.005748286014795,-3.2367128072500226
1683752232774430000,3.314429931640625,1.3563690164923667,2.8114807312875985,-2.371470772910118
1683752232784506000,3.324506103515625,-0.7114794596046209,3.0431498447850345,-1.2280027488201857
1683752232794581000,3.3345810546875,-2.232010864293575,3.0079794549435377,-0.15753566353321075
1683752232804656000,3.34465625,-3.3066303930848835,2.8532728773564098,0.9594622867822646
1683752232814731000,3.35473095703125,-3.269107594898343,2.4127707515478134,1.029430726021528
1683752232824806000,3.364805908203125,-2.0646447116196156,2.087923149745911,0.42729660727679725
1683752232834881000,3.374881103515625,-0.6375847868323326,2.082009541787952,-0.31768472443521023
1683752232844956000,3.384955810546875,0.6031207916945218,2.0924892886176703,-1.0873217739760874
1683752232855032000,3.395031982421875,1.5200947668373583,2.155286813314259,-1.715367163568735
1683752232865107000,3.40510693359375,2.18834240295887,2.405705781597644,-2.1547522680461406
1683752232875181800,3.415181884765625,2.4459710103601218,2.6569574013128876,-2.2791145607739685
1683752232885257000,3.425257080078125,2.1321391619607803,2.683327521844208,-1.8564970512241123
1683752232895331800,3.435331787109375,1.3155518529355525,2.794142642995715,-0.9342956968218088
1683752232905407000,3.445406982421875,0.19972820709645747,3.018678543612361,0.7500140651822089
1683752232915482000,3.455482177734375,-0.9021472851499914,2.8470798679351805,1.9494599970817565
1683752232925558000,3.46555810546875,-1.52611592682302,2.7504788578361272,2.4581980392485856
1683752232935633000,3.4756328125,-1.7335282586812972,2.712802330392599,2.459324997451901
1683752232945708000,3.4857080078125,-1.6880787591487167,2.5343483819931745,1.9690140078574419
1683752232955783000,3.495782958984375,-1.3341361418962479,2.4579738751038906,1.4224012853264807
1683752232965858000,3.505858154296875,-0.9068006639137863,2.408815145789832,0.8424883507400751
1683752232975933200,3.51593310546875,-0.49593496695607897,2.145618821258843,0.412164504596591
1683752232986007800,3.5260078125,-0.22564970707744358,1.8007018065050244,0.2984650601804256
1683752232996084000,3.536083984375,-0.14502484926730394,1.5461986376479266,0.4156798192411661
1683752233006159000,3.5461591796875,-0.2823687886431813,1.3683485003605484,0.5359177255153655
1683752233016234000,3.55623388671875,-0.7268795655712484,1.1658327083721756,0.46087271366417404
1683752233026309000,3.56630908203125,-1.0943412973493336,0.9751552382156252,0.4677069435983896
1683752233036383700,3.5763837890625,-1.1882808331541717,1.0325962043151258,0.7108090129971504
1683752233046459000,3.586458984375,-1.0903419985800982,1.0350424284234643,0.9553811549484729
1683752233056534000,3.596533935546875,-0.6332428121052682,1.2624307958617806,1.2173130125015974
1683752233066610000,3.60660986328125,-0.11325053160488605,1.5197218418717384,1.4671476050257681
1683752233076685000,3.61668505859375,0.4654392909273505,1.4322475565582513,1.3239765669316053
1683752233086760000,3.626760009765625,1.1398457419395447,0.9357999639049172,1.0998293733716011
1683752233096834800,3.636834716796875,1.85441746847108,0.4373082982033491,1.0284902303010224
1683752233106910000,3.646909912109375,2.4491071164287623,0.30498160246759654,1.1955927636027335
1683752233116985000,3.656985107421875,2.93378492244184,0.36850714917778965,1.410721953448653
1683752233127060000,3.66706005859375,3.101984018808603,0.058926236221194264,1.3281775257527828
1683752233137135000,3.677135009765625,2.774081851741671,0.10407704506814479,1.4251497072517871
1683752233147211000,3.6872109375,2.2911275085203346,-0.3302548676729202,0.941434462660551
1683752233157286000,3.697285888671875,1.427992237201333,-1.3566285442113875,0.16785247488617897
1683752233167361000,3.707361083984375,1.155703893871978,-0.635021658346057,0.902069835999608
1683752233177436000,3.717435791015625,0.9135095139026641,-0.1581827292650938,1.4028244781970978
1683752233187511000,3.727510986328125,0.7159148117035627,0.12253215469121932,1.7536591925621032
1683752233197586200,3.737586181640625,0.5382097819752991,0.25851824971735476,2.149863326960802
1683752233207660800,3.747660888671875,0.17935761924088,0.12726327486634254,2.4608383246242997
1683752233217737000,3.757737060546875,-0.21337387061119079,-0.686598116326332,1.9330834472984075
1683752233227812000,3.76781201171875,-0.43060785071663554,-0.21554010873436927,1.8383271882832048
1683752233237887000,3.777886962890625,-0.46766076636910436,0.12919336614608765,2.072396056398749
1683752233247962000,3.787962158203125,-0.5277309119284153,0.45214638637304305,2.0891098753124475
1683752233258037000,3.798037109375,-0.6438310608107596,0.8807423858106136,2.158909972247481
1683752233268112000,3.80811181640625,-0.9198901548504829,1.3966449127793312,2.7092133659899233
1683752233278187000,3.81818701171875,-1.6618822416186332,1.116892151853442,2.9898645370602606
1683752233288263200,3.82826318359375,-2.6455776369035244,-0.3673994801968336,1.794987812772393
1683752233298338000,3.838338134765625,-2.9970997490108013,-0.9054682462662458,1.400524384561181
1683752233308413000,3.848412841796875,-2.5413100376993416,-0.5068681566417217,1.4849749381393194
1683752233318487800,3.85848779296875,-1.8766817611187696,-0.23745149629116058,1.550299350965023
1683752233328563000,3.86856298828125,-1.0834813920956103,-0.26960253831148145,1.4925871667087076
1683752233338638000,3.87863818359375,-0.121339145514369,-0.2434288171350956,1.4065747706413267
1683752233348713000,3.888712890625,0.4924059891123324,-0.3998153106331825,1.3116834870696068
1683752233358788900,3.898788818359375,0.8031635446328669,-0.606520371004939,0.9604641573011875
1683752233368864000,3.908864013671875,0.6350083604730665,-0.5420481910943985,0.7224041737228631
1683752233378939000,3.91893896484375,0.06175123051404953,-0.09537000699937342,0.8689479031205177
1683752233389014000,3.929013916015625,-0.7250492814041674,0.21640286304354667,1.007237598913908
1683752233399089000,3.9390888671875,-1.286830200842023,0.23783494265079497,1.1701853506237267
1683752233409164000,3.9491640625,-1.5084943454146384,0.18276245924830437,1.12042091050148
1683752233419239200,3.9592392578125,-1.5780292155422269,-0.7838987991273403,-0.10508008463084698
1683752233429315000,3.969315185546875,-1.4756559056520462,-1.450737737494707,-0.7212222704619169
1683752233439390000,3.979389892578125,-0.4209761720836162,0.5684019450128078,0.5817571011483669
1683752233449465000,3.989465087890625,-0.11365969692766666,1.5710726744025945,1.0886620826691389
1683752233459540000,3.9995400390625,-0.2254804879903793,1.0289783060789108,0.35978140640854833
1683752233469615000,4.009614990234375,-0.1969936675660312,-0.4193389262706041,-0.8270639871150255
1683752233479690000,4.01968994140625,0.21870018020048737,-0.07685878327488899,-0.7410188578218221
1683752233489764900,4.029764892578125,0.07138356673419476,0.6469149252355099,-0.8378215279728174
1683752233499841000,4.039841064453125,-0.2168270798049867,0.4620826739758253,-1.2815449539154766
1683752233509916200,4.049916259765625,0.0965012029863894,0.38611470206081866,-1.5923299819648264
1683752233519991000,4.059990966796875,0.5792122389711439,0.7196037293493748,-1.6886878309577702
1683752233530066000,4.07006591796875,0.747723908418417,0.8685784852862357,-1.8987293422758578
1683752233540140800,4.080140869140625,0.497537872108072,0.7017746426701545,-2.2533476668328047
1683752233550216000,4.0902158203125,0.2846364413142204,0.9158031777977943,-2.1296400386214254
1683752233560291000,4.100291015625,-0.17599720289707182,1.4840192448496818,-1.6517752736240625
1683752233570366000,4.110365966796875,-1.635058532100916,1.5084125123500822,-1.6839993808805942
1683752233580441900,4.12044189453125,-3.071321754041314,1.314879652762413,-1.8038012338250875
1683752233590517000,4.13051708984375,-3.4210184042870995,1.4610767606794832,-1.7307295678734778
1683752233600592000,4.140591796875,-3.131753718650341,1.3541618618369102,-1.6525871745288372
1683752233610667000,4.1506669921875,-2.2441987302154303,1.1932032381176947,-1.0039847345978021
1683752233620742100,4.1607421875,-0.38731647906601424,1.7074731954485176,1.0332277802169323
1683752233630817000,4.170817138671875,0.9175063284538686,1.1996107670724392,2.61442145113945
1683752233640892000,4.180891845703125,-0.13823942691087723,0.4968617264121771,2.999263356785476
1683752233650968000,4.190968017578125,-1.2719919665418564,-0.00926525647342205,2.3045684432432054
1683752233661043000,4.20104296875,-0.8410228082321584,-0.16282500211298465,1.3467194368764757
1683752233671118000,4.2111181640625,0.2804069870509207,-0.03376899861097336,1.2514108046755195
1683752233681193000,4.22119287109375,0.6856858237870037,-0.1241623862415552,1.3240093001574278
1683752233691267800,4.231267822265625,0.6773476190306246,-0.05353285274505615,1.249382221457362
1683752233701343000,4.241343017578125,0.9183429254084825,0.25707623421549797,1.357838212262094
1683752233711417900,4.25141796875,1.325299339967966,0.22149755583405492,1.2233292040511965
1683752233721494000,4.261493896484375,1.4090272783599793,-0.31330490191578864,0.6220002642095088
1683752233731569200,4.271569091796875,1.528667364871502,-0.8195908747553825,-0.4680424591630697
1683752233741644000,4.28164404296875,2.095869140314311,-0.7841501435399055,-1.4607558581620455
1683752233751719000,4.291718994140625,2.6094623674273487,-0.2526175012409687,-1.7911150629922747
1683752233761794000,4.3017939453125,3.135103029078245,0.18951544063985346,-1.6878586866572498
1683752233771869000,4.311868896484375,3.33269130153656,0.4386334093272686,-1.7640291954070328
1683752233781944000,4.321944091796875,3.0994939555585383,0.5677215615332126,-1.6783514381214975
1683752233792020000,4.33202001953125,2.515748310941458,0.3654056760311126,-1.6420768864303827
1683752233802094800,4.3420947265625,2.623255914980173,-0.3088964378237724,-2.3476386464238166
1683752233812170500,4.35217041015625,2.270913134139776,0.8212234443932771,-1.097252216359973
1683752233822245400,4.362245361328125,0.9658061028510332,1.1449001027196646,0.7161521275907754
1683752233832320500,4.372320556640625,-0.8057751153707504,0.9309124841243028,1.5848557005614041
1683752233842395600,4.382395751953125,-2.3781799151599405,0.7723743655502796,2.291732927067578
1683752233852470300,4.39247021484375,-3.04536839761734,0.5625988116919994,3.179924752101302
1683752233862546400,4.40254638671875,-2.801617508921027,0.8006073573440313,3.4481115783959626
1683752233872621600,4.41262158203125,-2.242168101170659,0.6723626702249049,2.2037974539831278
1683752233882696400,4.422696533203125,-1.5889163741290568,0.7084007828116416,0.6104007195696234
1683752233892771600,4.432771484375,-0.6298346110969781,0.9697633160442113,-0.10674012679755687
1683752233902846500,4.442846435546875,0.48834286785926667,1.2348247037947178,-0.24538638094365595
1683752233912921300,4.45292138671875,1.0887450847774744,1.0721604452013969,0.03980623294860124
1683752233922996500,4.46299658203125,0.9429542195737362,0.8289853105664253,0.008474398356676101
1683752233933072600,4.47307275390625,1.60084646589756,0.42446810585260386,-1.4268077035918831
1683752233943147500,4.4831474609375,2.0264123038589954,0.5500064566224813,-2.051451175786555
1683752233953222400,4.493222412109375,2.503199795013666,0.14835107108056544,-2.2814608316391705
1683752233963297300,4.50329736328125,2.6575802093863485,0.6309568931251764,-2.1012842972308396
1683752233973372400,4.513372314453125,2.4459037903428076,1.0633744966775178,-1.533376273214817
1683752233983447600,4.523447509765625,1.9517840561151503,0.5574415750592947,-1.323029349209368
1683752233993522400,4.5335224609375,1.2574158903092145,0.36186464242339134,-1.1718564987063407
1683752234003598300,4.543598388671875,0.33319501277804375,0.3875233998149633,-0.8802320982009172
1683752234013673500,4.553673583984375,-0.36527879824843257,0.5879664771825075,-0.5113301044866443
1683752234023748400,4.563748291015625,-0.9194541015207767,0.6180418819725513,-0.16631985849142072
1683752234033823500,4.573823486328125,-1.1958148819208145,0.3334340822309255,-0.04827390930354595
1683752234043898600,4.583898681640625,-0.9477198265403508,0.14712299059033393,0.06223930629193782
1683752234053973500,4.593973388671875,-0.6471043103277683,0.9870552271068096,0.7320569682091475
1683752234064048600,4.604048583984375,-0.21398118885457515,0.5888742396771908,0.459804207649827
1683752234074124500,4.61412451171875,0.13567922103404997,-0.11157236925959586,-0.3539735969126224
1683752234084199400,4.624199462890625,0.3864987329423427,-0.13596446771621704,-0.38315176060199735
1683752234094274600,4.634274658203125,0.8555693661093712,0.07298106505870819,-0.23386194736659524
1683752234104349400,4.644349365234375,1.0688935523599385,0.22952362590134143,-0.4813672201603651
1683752234114424600,4.654424560546875,1.2184469849675894,1.4013117355465887,-0.008657061447203159
1683752234124499500,4.66449951171875,1.1010837573468684,1.139084109917283,-0.06284837810099124
1683752234134574300,4.67457421875,0.3818137899965048,0.18981179323792458,-0.38455110600590703
1683752234144650500,4.684650390625,0.11397007805109023,0.39909050348997116,0.2471966452360153
1683752234154725600,4.6947255859375,0.11384497210038826,0.6189408766388893,0.6386778427660464
1683752234164800500,4.704800537109375,0.1819283465117216,0.3804688051283359,0.4618640627890825
1683752234174875400,4.71487548828125,0.3624398119628429,0.20094109001755714,0.38653614234328265
1683752234184950500,4.724950439453125,0.3637736909151077,0.16960311794579028,0.5341808187201619
1683752234195025400,4.735025390625,0.25676526857018467,0.08937690406441688,0.7619944258332252
1683752234205100500,4.7451005859375,-0.18687106361091135,-0.6459557248145341,0.5382806552544236
1683752234215176700,4.7551767578125,-0.25826750809298826,-0.3670709788948297,0.9481319144725799
1683752234225251300,4.765251220703125,-0.155938749730587,0.48296004230976103,1.7729183120444416
1683752234235326500,4.775326416015625,-0.188768421664834,0.22097323969900606,1.8114128778725862
1683752234245401300,4.7854013671875,0.07558395016663708,-0.45316754611432547,1.4308993568196893
1683752234255476500,4.7954765625,0.4184843552678823,-0.613454554182291,1.1660995426148175
1683752234265551600,4.805551513671875,0.2206575978785753,-0.7251414897322654,0.9563105447530746
1683752234275626500,4.81562646484375,0.3634247313469648,-0.9907581732779741,0.6978200598254799
1683752234285702400,4.825702392578125,0.551305264261365,-0.5983043313235045,0.7517953956410288
1683752234295777500,4.835777587890625,0.8773983360797166,0.2932727522343397,1.3197040041789412
1683752234305852400,4.845852294921875,1.3000859882563351,0.667323507013917,1.2337410002112388
1683752234315927600,4.855927490234375,1.46796476662755,0.5230722724676132,0.31111411387324334
1683752234326002400,4.86600244140625,1.109326100513339,0.024291560691595077,-0.5914081420689821
1683752234336077600,4.87607763671875,0.9551181200981139,0.313423559859395,-0.23444296212494373
1683752234346152400,4.88615234375,0.951833691599965,0.6231248843252658,0.5919628533422947
1683752234356228600,4.896228515625,1.0185644640922547,0.5926899985730648,1.0173381371676922
1683752234366303500,4.906303466796875,1.1299398494750261,0.8708604587435722,1.4067892901748418
1683752234376378600,4.916378662109375,0.9913058702886104,1.1306921291470526,1.5829045664936303
1683752234386453500,4.92645361328125,0.5248796141505241,1.1179881303966044,1.6519085446149109
1683752234396528400,4.9365283203125,0.04495557853579521,1.1452607527256011,1.8225047652512787
1683752234406603500,4.946603515625,-0.12471417490541935,1.1985317396640778,2.1069237644225356
1683752234416678400,4.956678466796875,-0.15163259523557499,1.13550858951807,2.3077853594630957
1683752234426754600,4.966754638671875,-0.1648380772347562,1.103596616950631,2.471137015798688
1683752234436829400,4.976829345703125,-0.051323323469422755,1.0038830277889967,2.082648570343852
1683752234446904300,4.986904296875,-0.13864044545982032,1.0211094723999499,1.5792594879895447
1683752234456979500,4.9969794921875,-0.5870949185123667,1.0583072764158248,1.133558039972186
1683752234467054300,5.007054443359375,-1.0121142650395631,1.2976947092056275,1.0741770457208155
1683752234477129500,5.01712939453125,-1.5305658919692038,1.323682552421093,1.122895776182413
1683752234487204600,5.02720458984375,-2.029202811360359,1.1699252383828163,1.0658113684356212
1683752234497280300,5.0372802734375,-1.9252707277208565,1.340036305850744,1.2859276990443467
1683752234507355400,5.04735546875,-1.142534542632103,1.6615689378857612,1.4545020584642887
1683752234517430500,5.057430419921875,-0.5346095655262469,1.8914017758667467,1.5117548085153103
1683752234527505400,5.06750537109375,-0.32621815950274463,2.314270629829168,1.3296972826659679
1683752234537580500,5.07758056640625,-0.3604332944460213,2.505059743666649,0.9093366121321916
1683752234547655700,5.08765576171875,-0.3752256437778473,2.224889049589634,0.23567630331218242
1683752234557730600,5.09773046875,-0.09630115036964416,1.894012250626087,-0.31481238386929034
1683752234567806500,5.107806396484375,0.7730991726934909,1.5919441975176334,-0.719700175461173
1683752234577881600,5.117881591796875,1.7861232460543512,1.2232599382072686,-1.0365233146309851
1683752234587956500,5.12795654296875,2.6996830288395284,0.9295967253506183,-1.2104402041226625
1683752234598031600,5.138031494140625,3.3761221547231077,0.8686948051422834,-1.3142267418116331
1683752234608106500,5.1481064453125,3.2088851813867687,1.0578899277865885,-0.9244880040347575
1683752234618181400,5.158181396484375,2.9127283981487153,1.2724088767796755,-0.7424836696773767
1683752234628256500,5.168256591796875,2.8035210044547916,1.091259697946906,-0.8402233284175396
1683752234638332400,5.17833251953125,3.1082924713030455,0.992487189027667,-0.7754717470437288
1683752234648407600,5.188407470703125,3.4413825624018903,0.9792524444013834,-0.8999971213787794
1683752234658482400,5.198482421875,3.8682317181721326,0.7287064887374639,-1.5299842926889657
1683752234668557300,5.208557373046875,4.2069361420214175,0.42251930987238884,-1.5686217741191386
1683752234678632400,5.218632568359375,4.240606940954923,0.5599152716964483,-0.3829056768864393
1683752234688707600,5.22870751953125,3.980733769497275,0.4081652058273554,0.8022241448909044
1683752234698782500,5.238782470703125,3.5603456264346836,0.3019160774171352,1.5515554885059595
1683752234708858400,5.2488583984375,3.1134868250757455,0.3236544464945793,1.763348227405548
1683752234718933500,5.25893359375,3.134556501111388,0.0988701240748167,1.3866402361154555
1683752234729008400,5.26900830078125,3.42273280698955,0.2636363233834505,1.0815285775274037
1683752234739083500,5.27908349609375,3.466551490449905,0.3012771949917078,1.1097340967923401
1683752234749158400,5.289158447265625,3.2391677991867063,0.13038286819159983,1.3042834399461745
1683752234759233500,5.299233642578125,2.769357161307335,0.2076835500150919,1.8689193104237316
1683752234769308700,5.30930859375,1.6606079838991163,0.3510153316289186,2.6208430086195467
1683752234779384300,5.31938427734375,0.3228098123639822,0.31858956432044505,2.6182699432611463
1683752234789459500,5.32945947265625,-0.49642830343097444,0.13833411945700644,2.0953093144744632
1683752234799534600,5.33953466796875,-0.727163935470581,-0.0025479309171438217,1.4481874684900045
1683752234809609500,5.349609375,-0.7154524548888206,-0.14564824186265468,1.078193880146742
1683752234819684000,5.35968408203125,-0.6221469792038202,-0.19139818564653396,1.3601105411082506
1683752234829759200,5.36975927734375,-1.0518424643158912,-0.17506489048302173,1.605576417028904
1683752234839834000,5.379834228515625,-1.648171111652255,-0.23382979866266249,1.795335018774867
1683752234849910000,5.389909912109375,-2.2320307380378246,-0.24064532389640805,1.893310824358463
1683752234859985200,5.399985107421875,-2.8347674988508222,-0.26085925988554953,1.6521616425931454
1683752234870060300,5.410060302734375,-3.422992919230461,-0.22365268804132937,1.36344991466403
1683752234880135200,5.42013525390625,-3.700052787810564,0.035628362742066384,1.2609054859906434
1683752234890210000,5.4302099609375,-3.868622763316333,0.37831191935539243,0.9257119928717613
1683752234900285200,5.44028515625,-3.883264744392037,0.6920598888635635,0.7963374249398708
1683752234910360000,5.450360107421875,-3.2300688391909,0.7454974645406007,0.6923094797104596
1683752234920436200,5.460436279296875,-2.4605352500244972,0.8275023785322904,0.938401963096857
1683752234930511400,5.470511474609375,-1.9264871177732943,0.7679547955423593,1.6671376779288052
1683752234940586000,5.4805859375,-1.452487211510539,0.43984746129214763,2.0520821671664713
1683752234950661000,5.4906611328125,-1.0861369481056928,0.029404958182573316,1.9353116447418928
1683752234960736000,5.500736083984375,-1.2616454907029866,0.03673866207152605,1.429374046948552
1683752234970811100,5.51081103515625,-1.8438170178711413,0.3815677062809467,0.9317162017226218
1683752234980887300,5.52088720703125,-2.4079051913380622,0.765959822332859,0.8209463810175657
1683752234990962000,5.5309619140625,-2.885514520269632,0.9369029567107557,0.7258803254008293
1683752235001037000,5.541037109375,-3.2846085308909414,1.1756170202836393,0.9128110102444886
1683752235011112200,5.5511123046875,-3.4544343516767024,1.3779676848381757,1.415984988543391
1683752235021187000,5.56118701171875,-3.4795372287511825,1.267760174190998,1.68195589235425
1683752235031262200,5.57126220703125,-3.193979580938816,1.168814062270522,1.944766870829463
1683752235041337300,5.58133740234375,-3.058488575953245,1.233996436277032,2.17327284412086
1683752235051413000,5.5914130859375,-3.032335897564888,1.452703484609723,2.4069062434285877
1683752235061488000,5.601488037109375,-3.0424376048624513,1.8908879811257122,2.5416958221465347
1683752235071563300,5.611563232421875,-3.0554712739586827,2.5398852655932305,2.6179139694303273
1683752235081638100,5.62163818359375,-3.1607781530827284,3.06959507637918,2.340328615671396
1683752235091713300,5.63171337890625,-2.9807974335074423,3.4105390958487987,1.8833710296243429
1683752235101788200,5.6417880859375,-2.313224920168519,3.4334804109752177,1.3211036418437958
1683752235111863000,5.651863037109375,-1.5416981113582848,3.1032769812285896,0.3887614171773195
1683752235121939200,5.661939208984375,-0.9698445645868777,3.0600574327051637,-0.2828162401497364
1683752235132014000,5.67201416015625,-0.526097757768631,3.2007465908557173,-0.8365034311115741
1683752235142089200,5.682089111328125,-0.30609248631894587,3.1508775213152167,-1.50893916657269
1683752235152164000,5.6921640625,-0.3191489517688751,3.222522077073157,-1.5917700099945067
1683752235162239000,5.702239013671875,-0.820134480112791,3.588670680426061,-0.6940232978910207
1683752235172314000,5.712314208984375,-1.3582453317582606,3.829455412793159,0.028773090019822117
1683752235182389000,5.722388916015625,-1.3935820180773735,3.826493055856228,-0.1935714380323887
1683752235192465200,5.732465087890625,-0.5618582224577665,4.036843486993015,-0.6737012253522873
1683752235202540000,5.7425400390625,0.9508364972561597,4.244659723477065,-1.2868202639698982
1683752235212615200,5.752615234375,2.517884738448262,4.3298523275941605,-1.8266282749220728
1683752235222690000,5.76268994140625,3.703922322720289,4.416761964762211,-2.2264599521681667
1683752235232765200,5.77276513671875,4.358330234059691,4.460893367433548,-2.5920120509326456
1683752235242840000,5.782840087890625,4.415379570493102,4.263337243679166,-2.989055851025879
1683752235252915200,5.792915283203125,4.079716706296801,4.137447010731697,-3.17458485237807
1683752235262991000,5.8029912109375,3.5194168191969393,4.2216672626852985,-2.877472960372269
1683752235273066000,5.81306591796875,2.9456910488128663,4.015340972498059,-2.5050842935860156
1683752235283141000,5.82314111328125,2.4117554370254277,3.5372193101301788,-2.119488062441349
1683752235293216300,5.83321630859375,2.0005320126712323,3.089880908560753,-1.5867311390444636
1683752235303291100,5.843291015625,1.98151283942461,2.742967167031765,-1.1092770006746053
1683752235313366300,5.8533662109375,2.6023919906497,2.506927875626087,-0.7714584197491406
1683752235323441200,5.863441162109375,3.583558159717917,2.288380694030225,-0.7889251028567552
1683752235333517000,5.87351708984375,4.091360382339358,2.0108027929253875,-0.831095142327249
1683752235343592200,5.88359228515625,3.984368911129236,1.7102619493842124,-1.0025666844934225
1683752235353667000,5.8936669921875,3.5908851416051384,1.450549229185283,-1.344548230317235
1683752235363742200,5.9037421875,3.396785880306363,1.2418503646478056,-1.5993386916831134
1683752235373817000,5.913817138671875,3.578095802658796,1.1230448292642832,-1.7482424282103777
1683752235383892000,5.92389208984375,3.7605876282721757,1.0552642554581164,-1.508610665270686
1683752235393968000,5.933968017578125,3.8859365939497947,0.9428004903167486,-1.2880638342902064
1683752235404043300,5.944043212890625,3.5533471458494663,0.8277730121672153,-1.0907532097294925
1683752235414118100,5.9541181640625,2.8187796561241147,0.6739858875125646,-0.8564090318039059
1683752235424193000,5.964193115234375,2.2768729193270203,0.529081742015481,-0.9081564624369144
1683752235434268200,5.97426806640625,2.062409499913454,0.46043695259541273,-0.9934165788322686
1683752235444343000,5.984343017578125,2.0142378819406033,0.28852438866347074,-0.943484088666737
1683752235454418200,5.994418212890625,1.6845727968543767,0.17041136558875442,-0.6742933460265398
1683752235464494300,6.004494384765625,0.7334054602086544,-0.003919949922710657,-0.18289397667348384
1683752235474569000,6.01456884765625,0.16605039390027523,-0.12967398926988244,0.2008767926096916
1683752235484644000,6.02464404296875,-0.14131401205062866,-0.1372301037378609,0.5619967541456222
1683752235494719000,6.034718994140625,-0.30338147379457947,-0.17667115663588046,0.6720619337126612
1683752235504794000,6.044794189453125,-0.3400245665371418,-0.1877617288403213,0.8451327277690172
1683752235514869200,6.054869140625,-0.31492519659399987,-0.18923779274225233,1.0378624542802573
1683752235524944100,6.064944091796875,-0.3693640582680702,-0.3694964524760842,1.1133636854663491
1683752235535020000,6.07502001953125,-0.3771668409734964,-0.3345043418109417,1.4388269349485634
1683752235545095200,6.08509521484375,-0.5306155274540185,-0.21775646960958836,1.8297762175589798
1683752235555170000,6.095170166015625,-1.5644237379074095,-1.3591501716434955,0.8048296512141824
1683752235565245200,6.1052451171875,-1.5932891823858022,-1.4500864339791237,0.8860024982959032
1683752235575320300,6.1153203125,-1.5083762719929217,-0.9184127757743,1.1146382354468107
1683752235585395200,6.125395263671875,-1.363960786795616,-0.9601074528180062,1.1486413350746034
1683752235595470000,6.135469970703125,-1.1408733314216137,-1.2684240449272095,1.154779983960092
1683752235605546200,6.145546142578125,-0.7884902185708283,-1.143375377370417,1.413610952888429
1683752235615621000,6.15562109375,-1.3267711660861967,-0.9908920287907123,1.6271648562416434
1683752235625696300,6.1656962890625,-2.3263626341611148,-1.4276985149517654,1.175899636617303
1683752235635771100,6.175771240234375,-2.8876398418605325,-0.659972413598746,1.3782818653538822
1683752235645846000,6.185845947265625,-4.197971914321184,-1.1617371096216143,-0.23981676411777733
1683752235655921200,6.195921142578125,-3.97227573775351,-0.9573305354505777,-0.7087596792519092
1683752235665996000,6.20599609375,-3.2642963952243327,-0.19630451625809073,-0.9300967838272451
1683752235676072200,6.216072265625,-2.1564812837958334,0.10650368769317865,-1.2865940539985894
1683752235686147300,6.226147216796875,-1.230043899258971,-0.023577567203342913,-1.5223685569882393
1683752235696222000,6.236221923828125,-0.5795592988431454,0.10409428846389054,-1.5291045872449873
1683752235706297000,6.246297119140625,-0.6879734963327646,-0.14626958863139153,-2.1883939870156346
1683752235716372200,6.256372314453125,-0.9517489359259604,-0.507435581266135,-3.0304107747212052
1683752235726447000,6.266447021484375,-1.037271502649784,0.3098077074497938,-3.2457068455666302
1683752235736522200,6.276522216796875,-0.9133616298645735,0.9711568162292241,-3.6476071457803245
1683752235746598100,6.28659814453125,-0.5743482861965894,1.0703878825709223,-3.982998207297921
1683752235756673000,6.296673095703125,-0.11407120033800601,1.1440388097152112,-4.031310110524297
1683752235766748200,6.306748046875,0.6205243464380502,1.2327066887274383,-4.087372774007917
1683752235776823000,6.316822998046875,1.5067740974932908,1.2657374361917375,-4.197943565009534
1683752235786898200,6.326898193359375,2.4258716406613585,1.1861451362997293,-4.40460332493484
1683752235796973300,6.336973388671875,3.405116486278176,1.0113011950910091,-4.538908919528127
1683752235807048200,6.347048095703125,4.168909485965967,0.7795791823625564,-4.479386470979452
1683752235817123800,6.357123779296875,4.666685404613614,0.5102195128962397,-4.439046277284622
1683752235827198700,6.36719873046875,5.000499426072835,0.3942234819754958,-4.222326603376865
1683752235837273900,6.37727392578125,4.944263744109869,0.3865402339965105,-3.8411844290316104
1683752235847349000,6.387348876953125,4.673308622145653,0.2815343836456537,-3.533098723068833
1683752235857424000,6.397423828125,4.197836889764666,0.11126783335506915,-3.197547502553463
1683752235867498800,6.407498779296875,3.8743122071295972,0.07937807261943816,-2.6968948594257234
1683752235877575000,6.417574951171875,3.4718846681714055,0.033654724581539626,-2.2350594382092357
1683752235887649800,6.42764990234375,2.952452213510871,-0.3413365259185433,-2.1386934059098364
1683752235897725000,6.437724853515625,3.2896436024487015,0.02579758134037256,-1.3664872365333138
1683752235907800000,6.447800048828125,2.926371431314945,-0.24741087250858543,-1.115805964051932
1683752235917874700,6.457874755859375,3.136289608514309,-0.2958124998450279,-0.2595420398071408
1683752235927949800,6.46794970703125,2.409817746961117,-0.4044938238382339,0.572317218760401
1683752235938024700,6.478024658203125,1.1264069991737604,-0.41188714895993467,1.092024544839561
1683752235948100900,6.488100830078125,-0.10317746587991714,-0.2481397713050246,1.311982323885709
1683752235958176000,6.498176025390625,-0.8170844448924064,-0.0462739676579833,0.9578405307993292
1683752235968250600,6.508250732421875,-0.8450310209602117,0.11982640286386012,0.4398163355015218
1683752235978325800,6.51832568359375,-0.23930443068146703,0.09143412885516881,0.10176847586482762
1683752235988401000,6.52840087890625,0.6120791741758584,-0.03731763100326061,-0.12090455348938703
1683752235998475800,6.538475830078125,1.4630588744074104,-0.17686404885947704,-0.03743058985844254
1683752236008551000,6.548551025390625,2.061604028749466,-0.3420639634102583,0.3996450686328113
1683752236018626800,6.558626708984375,2.0785721146851777,-0.629864713974297,0.6092017190434038
1683752236028701700,6.56870166015625,1.8418156149208544,-0.7668591092601418,0.7714955368891357
1683752236038776800,6.57877685546875,1.3991940127402542,-0.7423360779002308,0.8691957404017447
1683752236048851700,6.588851806640625,0.6995306631356477,-0.6723512720480561,0.9244665228553116
1683752236058926800,6.5989267578125,-0.0730588064700365,-0.6570268616661429,0.7010800845347345
1683752236069002000,6.609001953125,-0.4625818556696176,-0.694483608879149,0.2974913928426802
1683752236079078000,6.619077880859375,-0.34404724618196486,-0.6101408995896578,-0.021826047360897063
1683752236089152800,6.62915283203125,0.12688275111615657,-0.49674160716384647,-0.37821437726505097
1683752236099228000,6.639227783203125,0.767768917581439,-0.29835867719650266,-0.47119252069182693
1683752236109302800,6.649302734375,1.1791197677075862,-0.16964871065318585,-0.5165999346483499
1683752236119378000,6.6593779296875,1.2739917620569468,-0.10790361761897801,-0.26054299701061095
1683752236129453000,6.669453125,0.9131488638967276,0.02322919215708971,0.20637707052640616
1683752236139527700,6.679527587890625,0.3688742289245128,0.264216315228492,0.299532981672883
1683752236149603800,6.689603759765625,-0.011879822885990142,0.7258290336050093,0.8232706592466682
1683752236159679000,6.699678955078125,-0.18711480923891066,1.0182746873654425,1.301927232208848
1683752236169753900,6.70975390625,-0.4543137935400009,1.1028412685386837,1.3846267043359577
1683752236179829000,6.7198291015625,-0.4144698589295149,1.4171160383999346,1.4846980208940803
1683752236189903600,6.729903564453125,0.025361235749721527,1.541414618241787,1.091729945807159
1683752236199978800,6.739978759765625,-0.004887772041559219,1.7524553697302936,1.1042026200197637
1683752236210054000,6.750053955078125,-0.10337854140996933,1.6355087600864469,1.6790286067306994
1683752236220129800,6.7601298828125,-0.3955190747439861,1.6433923529431222,2.150017933000624
1683752236230205000,6.770204833984375,-0.4675888701766729,1.8636299718439577,2.077164147583395
1683752236240279800,6.78027978515625,-0.1086690490335226,1.6871289110779761,2.8095968172371384
1683752236250354700,6.790354736328125,-0.0692985771536827,1.5529609713897108,3.240326906093955
1683752236260429800,6.800429931640625,0.08646247792243957,1.1601977712251246,3.323639980074763
1683752236270505000,6.8105048828125,0.24535189415216443,0.6044944181352854,3.0664786979243157
1683752236280579800,6.820579833984375,0.19156418986320495,0.3552364564552903,3.0805028393626213
1683752236290655700,6.83065576171875,-0.21367606842815876,0.6060086220905184,3.2865158258169886
1683752236300731000,6.84073095703125,-0.6363485230356455,0.9266527808532118,3.1302196409508585
1683752236310805800,6.8508056640625,-0.9907558351904153,0.6848759687088429,2.4074108319498597
1683752236320881000,6.860880859375,-0.9651233812838792,0.578433509683609,2.265426519422233
1683752236330955800,6.870955810546875,-1.4780734881877897,0.6656221099235117,2.6321415244862436
1683752236341031000,6.881031005859375,-2.499292850703001,0.1373157361947,2.515586982899904
1683752236351106000,6.89110595703125,-2.204412663272023,-0.4122545209676027,2.1540476269081235
1683752236361181700,6.901181640625,-1.3249685005784033,-0.5130446533195674,2.094617825078964
1683752236371256800,6.9112568359375,-0.2865881599038839,-0.1967809015981853,1.8877474911428986
1683752236381332000,6.92133203125,0.8839601788133382,0.41086891182810065,1.0096158723525703
1683752236391406800,6.93140673828125,1.5776596515774726,0.7005174822159111,-0.4309145785782486
1683752236401482000,6.94148193359375,1.6095640253603458,0.5634991215325892,-0.5781225075056776
1683752236411556900,6.951556884765625,1.7374439708203075,-0.1748404340773821,-0.5891487457696348
1683752236421632800,6.9616328125,1.0673591823995112,-0.45017304047346113,-0.1878332597065717
1683752236431708000,6.9717080078125,0.2443874330341816,-0.8769473774418234,-0.07471636441871524
1683752236441783000,6.981782958984375,0.37549978454411026,-1.2347428707301615,-0.11826287987418473
1683752236451858000,6.99185791015625,1.0437737241506575,-0.3555303248353302,0.47203116347305474
1683752236461932800,7.001932861328125,0.26619185308516025,0.43031785479411483,0.4913599871907383
1683752236472007700,7.012007568359375,-0.5515110159665346,0.65989964062348,-0.040325105723552405
1683752236482082800,7.022082763671875,-1.008321302497387,1.0876274789243936,-0.6097923784129321
1683752236492159000,7.032158935546875,-1.3018687800198792,1.4003290081195532,-1.3644707821443676
1683752236502233900,7.04223388671875,-1.4470570031553507,1.3560244408383966,-2.074592543529719
1683752236512308700,7.052308837890625,-1.3012491868168115,1.0210713323466478,-2.233368708643317
1683752236522384000,7.0623837890625,-1.057842581513524,-0.048518677844852205,-1.8082298639222978
1683752236532458800,7.072458740234375,-0.68570672044456,0.8409867140054702,-0.3860119723387062
1683752236542534000,7.082533935546875,-0.3378624200671911,0.14785086647346615,0.20151490785013884
1683752236552608800,7.09260888671875,-0.2211328141748905,-0.6626546384200453,1.0153524432431906
1683752236562684700,7.1026845703125,-0.4708136774420738,-1.2591164106167851,1.57092274453789
1683752236572759800,7.112759765625,-1.1117366687864065,-1.4267777468450367,1.8882674233637748
1683752236582835000,7.1228349609375,-1.4791589453369378,-1.2368648313201964,1.9453753581166267
1683752236592909800,7.132909912109375,-1.4350579378038644,-0.6106630237676203,1.5718620712146163
1683752236602985000,7.14298486328125,-1.3043974217146634,0.21974179820790884,0.9106123311564326
1683752236613059800,7.153059814453125,-1.070287637066841,0.5804240989789367,0.19334588564820587
1683752236623135700,7.1631357421875,-0.3940852425485849,0.6266176948770881,-0.5610221369598061
1683752236633211000,7.1732109375,0.2224965037435293,0.6902369112201034,-0.9635802434951066
1683752236643285800,7.18328564453125,0.28303485133647915,0.5097448811218143,-1.2897281142406165
1683752236653361000,7.19336083984375,0.29173253705501556,-0.030201223126798866,-1.3131105972632764
1683752236663436000,7.20343603515625,0.5522516052007674,0.5255632125005125,-0.03605272563397884
1683752236673511000,7.213510986328125,0.6363280647695064,0.6420531644180417,0.5040918237961829
1683752236683585800,7.223585693359375,0.5941939733952284,0.10998699976429342,0.48111989433579144
1683752236693662000,7.233661865234375,0.7343845343738794,0.07626300933882593,0.4461518586659804
1683752236703736800,7.24373681640625,1.011305286744237,0.31200141810178755,0.14832892318083904
1683752236713812000,7.25381201171875,1.3617775975376367,0.26425635497793554,-0.18778735647192224
1683752236723886800,7.263886962890625,1.6795803953945636,0.16231880615651606,-0.3667087214536965
1683752236733961700,7.273961669921875,1.5789116974651813,0.21344386710748076,-0.4540670522373169
1683752236744036900,7.284036865234375,1.0154980622589587,0.2857588694728911,-0.09635063380086793
1683752236754111700,7.29411181640625,-0.08077332637012004,0.364396937379986,0.5129122956441715
1683752236764188000,7.30418798828125,-1.2076058574795723,-0.2060081641487777,0.7531541898388415
1683752236774262800,7.3142626953125,-1.8035031276613473,-0.5903362750537693,1.3106541440218686
1683752236784337700,7.324337646484375,-1.7971803543806075,-0.6161977154105901,2.0423435940928756
1683752236794412800,7.334412841796875,-1.3090379409968853,-0.8000026694491505,2.0815346177525815
1683752236804488000,7.344488037109375,0.004318447721004486,-0.7196393851846457,1.9269218559287487
1683752236814562800,7.354562744140625,1.155768702736497,-0.12716186031848192,0.5589740453235804
1683752236824638700,7.364638671875,1.3443781344473362,0.21358371396958828,-0.4469323049865663
1683752236834713600,7.374713623046875,1.4749515567749738,0.13716829054802657,-0.9176493901863694
1683752236844788500,7.38478857421875,1.4425029931128024,0.16859423316419123,-0.6442880107980221
1683752236854863600,7.394863525390625,1.2549626519382,0.03769026370793581,-0.3469417985796928
1683752236864938800,7.404938720703125,1.046564816173911,-0.16567922250032424,-0.31087533668130635
1683752236875013600,7.415013671875,0.8439215984135866,-0.1670142704963684,-0.39809466085303574
1683752236885088800,7.4250888671875,0.5812865610271692,-0.08726502647697926,-0.43560492835156617
1683752236895164700,7.43516455078125,0.3020008330911398,-0.15029329118952153,-0.5953798952441662
1683752236905239600,7.445239501953125,0.3089315091371536,-0.30173107623904943,-0.7129209636498243
1683752236915314700,7.455314697265625,0.29452830525338647,-0.18724281953275201,-0.4840735199769959
1683752236925389600,7.4653896484375,-0.11891337967216968,-0.004818213936686516,-0.32750955102015283
1683752236935464700,7.475464599609375,-0.7107926463842391,0.18139292446076868,-0.26097419150210915
1683752236945539800,7.485539794921875,-1.198846212440729,0.2670126679487526,-0.20586307485597208
1683752236955615500,7.495615478515625,-1.6467483853727578,0.3181900436088443,-0.20743459848901255
1683752236965690600,7.505690673828125,-1.8391969568550586,0.34632907350882886,-0.0925452319022268
1683752236975765800,7.515765869140625,-1.750050938937068,0.24164091080501673,0.014007117238268255
1683752236985840600,7.525840576171875,-1.3417670751661062,0.06902838191017509,-0.0740916566491127
1683752236995915800,7.535915771484375,-0.8581161279827356,-0.020471417881548402,-0.21567290480118242
1683752237005990700,7.54599072265625,-0.46703708151280876,0.11084785437732934,-0.0621999971948564
1683752237016065500,7.5560654296875,-0.13329729433357715,0.09779562671110033,-0.11025321295242756
1683752237026141700,7.5661416015625,-0.30054069741070266,-0.18626257632374763,-0.19605419475883246
1683752237036216800,7.576216796875,-0.8681728270947933,-0.21936580450236795,-0.0003026727410033345
1683752237046291700,7.586291748046875,-1.105946394947171,-0.23561449012234806,-0.1671978834349662
1683752237056366600,7.59636669921875,-1.0258628044068814,-0.287120513214916,-0.2646520580309443
1683752237066441500,7.60644140625,-0.790218065276742,-0.198975635163486,-0.11795710186064243
1683752237076516600,7.6165166015625,-0.606968114772439,-0.03820142810046673,0.1615277653766796
1683752237086592800,7.6265927734375,-0.4168944557279348,0.07242430795878171,0.38746092903800305
1683752237096667600,7.636667724609375,-0.24501053336858747,0.09250117356479168,0.4540276335423812
1683752237106742500,7.646742431640625,-0.07815466830432415,-0.0074503160059452055,0.46492735934983936
1683752237116817700,7.656817626953125,0.011959317862987517,-0.09718260937929153,0.3608828283118084
1683752237126892500,7.666892578125,-0.08401157763898372,-0.10724690727591514,0.29507629452496764
1683752237136967700,7.6769677734375,-0.5698977365285158,-0.10973726278692483,0.2233129894918762
1683752237147042800,7.687042724609375,-1.13073421472311,-0.050313306176662444,0.13190277123525737
1683752237157118500,7.697118408203125,-1.5380191305845976,-0.008545710027217865,0.1129258114288561
1683752237167193600,7.707193603515625,-1.4746090269476175,0.11661182473152876,0.1679799189244397
1683752237177268700,7.717268798828125,-0.8865537024378776,0.27930355585366484,0.27122732650171966
1683752237187343600,7.727343505859375,-0.28590310024917126,0.25546470736563204,0.3743902889322489
1683752237197418800,7.737418701171875,-0.022121230915188788,0.17178192328959702,0.36365207382943476
1683752237207493600,7.74749365234375,-0.011200608450174331,0.1695902584642172,0.36332233041841533
1683752237217568500,7.757568603515625,-0.14578092833161352,0.19375000946968793,0.3642412718942389
1683752237227644700,7.767644775390625,-0.3055214084327221,0.24754735836982725,0.43255781574063
1683752237237719600,7.777719482421875,-0.33805531229078767,0.33024522306174037,0.5122052433533594
1683752237247794700,7.787794677734375,-0.22907354404628275,0.33943419942855835,0.5190299382742494
1683752237257869800,7.797869873046875,-0.1347720430612564,0.2652212544873357,0.4166062133710831
1683752237267944400,7.8079443359375,0.024623569124937055,0.2176546166703105,0.3096045495605096
1683752237278019600,7.81801953125,0.33031507342755795,0.2265092465162277,0.2526891782376915
1683752237288095700,7.828095703125,0.6903215207636356,0.21978519895821808,0.16317105733798815
1683752237298170600,7.838170654296875,0.8211831123828888,0.1800157908886671,0.12126007066247985
1683752237308245800,7.848245849609375,0.8166676807850599,0.18256313728392123,0.08665582680376246
1683752237318320600,7.858320556640625,0.7323124042749405,0.19808774641305207,0.07170815904606133
1683752237328395500,7.8683955078125,0.4777537058383226,0.2125429727450013,0.14684497736655175
1683752237338470700,7.878470703125,0.3419645946890116,0.22149171061515807,0.2081258869551122
1683752237348545500,7.888545654296875,0.4493646467000246,0.16849837157428263,0.1986695100900717
1683752237358621700,7.89862158203125,0.7444044086068868,0.060116907310485836,0.07467961260490119
1683752237368696600,7.908696533203125,1.0052297662228344,-0.13009294533431529,-0.0313008366654627
1683752237378771500,7.918771484375,1.0673217729985713,-0.2158084042817354,-0.08015095668807626
1683752237388846600,7.9288466796875,0.9364163422375917,-0.17624094852507113,-0.14191142995450645
1683752237398921700,7.938921630859375,0.6279349149554968,-0.1479153100118041,-0.1381346148295328
1683752237408996600,7.94899658203125,0.3550514552772045,-0.09548515781164169,-0.10088729084981604
1683752237419072500,7.959072509765625,0.25494039123058315,-0.11280015748888253,-0.05736357174804434
1683752237429147600,7.969147705078125,0.28772096332609653,-0.24310265392065047,-0.02240655066259205
1683752237439222500,7.979222412109375,0.43022973811924453,-0.5152697820231318,0.04147329394456464
1683752237449297700,7.989297607421875,0.6697001730173826,-0.7095759640708565,-0.06079366949431132
1683752237459372500,7.99937255859375,0.907441007643938,-0.6430497742399574,-0.25298246209584174
1683752237469447700,8.00944775390625,0.8485095107257365,-0.5119821386545896,-0.517161769782193
1683752237479522800,8.019522705078124,0.43252690914571285,-0.4056353950887918,-0.6571073795564473
1683752237489598700,8.0295986328125,-0.14356208323836325,-0.27717911104559895,-0.6296219912596046
1683752237499673600,8.039673583984374,-0.6228086579829454,-0.16741116085946559,-0.5060802941996604
1683752237509748700,8.049748779296875,-0.8450859660178422,-0.13310147950053214,-0.4530144744444638
1683752237519823600,8.05982373046875,-0.708556850156188,-0.07309767717570066,-0.42886677920296784
1683752237529898800,8.069898681640625,-0.377624521613121,-0.08858224655538798,-0.36410686839222905
1683752237539973600,8.0799736328125,0.07668459575176238,-0.06311930399686097,-0.22587829166892914
1683752237550049500,8.090049560546875,0.5610621036440133,-0.015156360338628291,-0.1786989544027485
1683752237560124700,8.100124755859374,0.8776783220648765,0.016127835719287394,-0.2793041221092455
1683752237570199800,8.11019970703125,0.8414391339480877,-0.04246639206856489,-0.5134095411092042
1683752237580274700,8.120274658203124,0.5233978511601686,-0.06401917544603347,-0.7110612341925502
1683752237590349600,8.130349609375,0.09967851784825324,-0.02068126123994589,-0.7211420448325574
1683752237600424400,8.140424560546874,-0.2479465868204832,0.12112813311219214,-0.4776435965273529
1683752237610499600,8.15049951171875,-0.4019856404095888,0.2459957450136542,-0.08981374284541234
1683752237620575700,8.16057568359375,-0.32723873472213744,0.34808483113497496,0.22564501263601705
1683752237630650600,8.170650634765625,-0.17649346198141574,0.4132698354899883,0.3847703382471576
1683752237640725500,8.1807255859375,-0.03539806111752987,0.5371893528863787,0.4869415862265974
1683752237650800600,8.190800537109375,0.21013035864531993,0.6246633459389209,0.4741758108189329
1683752237660875500,8.20087548828125,0.554165914389491,0.683683105662465,0.47297242637854064
1683752237670950700,8.21095068359375,0.8348200080692768,0.7025926810547709,0.48451026742644604
1683752237681026800,8.22102685546875,0.9721148476064204,0.7074348603889345,0.47219165126439183
1683752237691101400,8.231101318359375,0.9632827218532561,0.6834320535108447,0.42652580556739117
1683752237701176600,8.241176513671874,0.8598463127762078,0.600078647519648,0.3225776110433042
1683752237711251700,8.251251708984375,0.8862351380079985,0.4729699786931276,0.2454933484494686
1683752237721326600,8.26132666015625,1.0924304952919484,0.33130583803057667,0.12019982101982458
1683752237731401700,8.271401611328125,1.2967694110542536,0.1968748634919524,0.02650885314857587
1683752237741476600,8.2814765625,1.4158862043440341,0.07918196552544832,-0.027564517947658896
1683752237751552500,8.291552490234375,1.3684282875984906,0.20064532194137571,-0.14064641498737038
1683752237761627600,8.301627685546874,1.150488716506958,0.4710378415867686,-0.26416971787409854
1683752237771702500,8.31170263671875,0.8649789994895458,0.6381248850584029,-0.2858088278281502
1683752237781777700,8.321777587890624,0.6953484090149402,0.7434314719215035,-0.37334625977203245
1683752237791852800,8.331852783203125,0.8187947559416293,0.7986214442238211,-0.438291829347983
1683752237801927700,8.341927734375,1.2699252432703971,0.7626122654706239,-0.3277571691056713
1683752237812003600,8.352003662109375,1.6455232274919747,0.638977117973566,-0.2767156947849318
1683752237822078700,8.36207861328125,1.604372886458039,0.5326052399665117,-0.35595582023840394
1683752237832153600,8.372153564453125,1.1463672526627777,0.42008536072373387,-0.4539966538822278
1683752237842228700,8.382228759765624,0.5762181717216969,0.42137803088277576,-0.5859770569309591
1683752237852303600,8.3923037109375,0.20821312684714793,0.5233414447978139,-0.6759987617049366
1683752237862378500,8.40237841796875,0.09424071070849895,0.6626183980628848,-0.6900823782455175
1683752237872453600,8.41245361328125,0.2538976041793823,0.7177312134757637,-0.5854453977396712
1683752237882529800,8.42252978515625,0.5753028104424476,0.6473606231763959,-0.3196059748213738
1683752237892604700,8.432604736328125,0.7840086892426014,0.457370258501172,-0.06728028700067662
1683752237902679800,8.4426796875,0.7061182248324155,0.26404987262040375,0.045779544337699186
1683752237912754400,8.45275439453125,0.6163280637919902,0.22955489782243965,0.0968255578362383
1683752237922829600,8.46282958984375,0.599966711577773,0.28062165271490813,0.1608519119417295
1683752237932904700,8.47290478515625,0.4708908343315124,0.2383785480082035,0.2692301248025149
1683752237942980600,8.482980712890624,0.209330148178339,0.14850713842511176,0.34127990036047995
1683752237953055700,8.4930556640625,-0.013344050219655037,0.10037176080942153,0.3282868555355817
1683752237963130600,8.503130615234374,-0.2290454869955778,0.03957563906311989,0.33101036221534014
1683752237973205500,8.51320556640625,-0.37825872786343095,-0.0733294401049614,0.21492146537937223
1683752237983280600,8.52328076171875,-0.34615152498483653,-0.2553726451680064,-0.15234423236995934
1683752237993355800,8.533355712890625,-0.33774259307980536,-0.5512812988638878,-0.6672429160583764
1683752238003430700,8.5434306640625,-0.5144330389380455,-0.7857572864755987,-0.9845745162069797
1683752238013506600,8.553506591796875,-0.5442775575816631,-0.8433326926097273,-0.8779691947702318
1683752238023581700,8.563581787109374,-0.4057978921741247,-0.8491729430705308,-0.531227375742048
1683752238033656600,8.573656494140625,-0.6469763000339269,-0.8672548354670405,-0.5606690857384353
1683752238043731700,8.583731689453124,-1.488261704725027,-0.7166270516261458,-1.3064786119028926
1683752238053806600,8.593806640625,-1.7163269485116004,-0.5678109933823347,-0.45175073811896144
1683752238063881700,8.6038818359375,-1.9215145900577306,-0.552291644950211,-0.3266139538872987
1683752238073957600,8.61395751953125,-2.0902046848118303,-0.41965924426615236,-0.6136651281930506
1683752238084032500,8.624032470703124,-1.48954297670722,-0.2895549007549882,-0.3311982129376381
1683752238094107600,8.634107666015625,-1.2943629344344139,-0.2653659236550331,-0.09987382122464478
1683752238104182800,8.644182861328124,-1.3304782039105891,-0.1525511531189084,0.10644012093767523
1683752238114257700,8.654257568359375,-1.3100292901217936,-0.014726736749708652,0.40830088797099884
1683752238124332500,8.66433251953125,-1.0066711972028017,0.05618336725383997,0.78559413180314
1683752238134408700,8.67440869140625,-1.0258739103227854,0.16855740828514099,0.8719602366790175
1683752238144483600,8.684483642578124,-1.467043560129404,0.4426017284363508,0.7443208219766616
1683752238154558700,8.694558837890625,-1.4607511819869279,0.6592088818803429,0.7380796625647693
1683752238164633900,8.7046337890625,-1.1675468188136815,0.6018395197123289,0.8926395982228219
1683752238174708500,8.71470849609375,-0.8961720101326703,0.3219800835415721,0.9018966713897884
1683752238184783600,8.72478369140625,-0.4251531655073166,0.014088731107115745,0.9381615054044872
1683752238194858500,8.7348583984375,-0.01770750612616539,-0.18756839822530746,0.9194681300461292
1683752238204934700,8.7449345703125,0.32014088541567326,-0.3055237465202808,0.8488139004997909
1683752238215009800,8.755009765625,0.3139835318297148,-0.36704116827845573,0.6305839681595563
1683752238225084400,8.76508447265625,0.005188216292858124,-0.31783436203897,0.48638632696401324
1683752238235159600,8.77515966796875,-0.3597212006539106,-0.15021628043055532,0.37114666736852375
1683752238245234700,8.785234619140626,-0.6118307523727416,0.0019528876334428786,0.2747517743008211
1683752238255309600,8.7953095703125,-0.7440887667864561,0.0815419726550579,0.21915095617529004
1683752238265385700,8.8053857421875,-0.7304167997866868,0.007141103926301002,0.1556221580620855
1683752238275460600,8.815460693359375,-0.7116957327038049,-0.07667728922814131,0.1783908931005746
1683752238285535500,8.825535400390624,-0.515426141628623,-0.06801935099810362,0.16367986537665127
1683752238295610600,8.835610595703125,-0.3124228583842516,0.016281564976274965,0.02299041496515274
1683752238305685500,8.845685546875,-0.2853933971613645,0.06072013390064239,-0.2060379016999155
1683752238315760600,8.8557607421875,-0.22029051813185213,0.1505474120810628,-0.36018520143646743
1683752238325835800,8.865835693359376,-0.20327450140118597,0.17250263877958058,-0.3860722511585802
1683752238335911700,8.87591162109375,-0.18120880006551743,0.12032792264521121,-0.3735186206642538
1683752238345986600,8.885986572265624,-0.1515519129484892,0.05411386750340461,-0.4852565557491034
1683752238356061700,8.896061767578125,-0.10108663108050822,0.05502192225903272,-0.5930298980519175
1683752238366136600,8.906136474609376,0.08395721710324287,0.1068044242054224,-0.6161328334808349
1683752238376211700,8.916211669921875,0.4231161067217588,0.10327478877454996,-0.4805504969500005
1683752238386286800,8.926286865234376,0.8024871797412634,-0.056283320496976375,-0.5501537561386823
1683752238396362500,8.936362548828125,1.048907579907775,-0.26340368367135525,-0.6915732013251632
1683752238406437600,8.946437744140624,0.8057283536195754,-0.14816431633681057,-0.5296795252455399
1683752238416512800,8.9565126953125,0.755118694844842,0.10955284613072871,-0.10950864166282116
1683752238426587600,8.966587646484374,0.765195267701149,0.24767507640272377,0.13049644810128957
1683752238436662800,8.976662841796875,0.816867002749443,0.22197423343509434,0.1625842156270519
1683752238446737400,8.9867373046875,0.8860153577774763,0.12088526426702736,0.0593105958962813
1683752238456812500,8.9968125,0.8871113363206387,0.04927665660530328,-0.09178495158683508
1683752238466888700,9.006888671875,0.9113795161366463,-0.015485446162521838,-0.20311784953474998
1683752238476963600,9.016963623046875,0.9072598058581351,-0.1207011398717761,-0.29375560384783894
1683752238487038700,9.027038818359374,0.6302654037296772,-0.11432400605529545,-0.3912930545467883
1683752238497113600,9.037113525390625,0.4096586592555046,-0.03570551963150501,-0.3349506973389536
1683752238507188500,9.0471884765625,0.13535071973204613,0.0651049248561263,-0.1890396398216486
1683752238517263600,9.057263671875,-0.20407354282438753,0.08306319087296724,-0.08125153834111988
1683752238527339800,9.06733984375,-0.4963035080075264,0.04199059125036001,-0.04024776617102325
1683752238537414700,9.07741455078125,-0.685022245311737,0.0259504338145256,-0.05604962133895605
1683752238547489500,9.087489501953126,-0.6735118402600287,0.020013737241923808,-0.05812222636193037
1683752238557564700,9.097564697265625,-0.5801935050934552,-0.003107610626518726,-0.06288238996844739
1683752238567639600,9.1076396484375,-0.5004699800372123,-0.02483604283183813,-0.03403586938623339
1683752238577714700,9.117714599609375,-0.343875396746397,-0.026250878065824507,0.03372019103318453
1683752238587790800,9.127790771484374,-0.10938275026082991,-0.017349486468732356,0.061903973390348255
1683752238597865500,9.137865478515625,0.15448387474715708,-0.0008522329151630402,0.08831216090973466
1683752238607940600,9.147940673828124,0.32667934727370734,0.006532324378192424,0.12557789732897653
1683752238618015500,9.158015380859375,0.35530922943055626,-0.002904197008907795,0.08596888571921736
1683752238628090600,9.168090576171876,0.3084218060493469,-0.04938187054544687,0.006953070540912449
1683752238638165800,9.178165771484375,0.2224228539854288,-0.04520107772946357,0.026288597994018344
1683752238648241400,9.188241455078124,0.06884615721106528,0.05677782601565122,0.10082699376363306
1683752238658316500,9.198316650390625,-0.0746884534984827,0.13932429953813552,0.15172668499350547
1683752238668391700,9.2083916015625,-0.2153039618909359,0.1360182437300682,0.08189175420710816
1683752238678466600,9.218466552734375,-0.252215934702754,0.10432342104464769,0.057809653281420466
1683752238688541700,9.228541748046876,-0.27332477370500563,0.07226239539533853,0.020821509960852563
1683752238698616800,9.238616943359375,-0.20891455311477183,0.0017377835780382155,-0.03134962597694248
1683752238708691700,9.248691650390626,-0.07343991474211216,-0.021104455088078976,-0.07135598460752517
1683752238718767600,9.258767578125,0.06951777286231517,0.0038382629886269566,-0.065277066552639
1683752238728842800,9.2688427734375,0.23436112906038759,0.03673603172302246,-0.07812230040468275
1683752238738917600,9.278917724609375,0.45308279044032096,0.060655836492776866,-0.08997691578418016
1683752238748992800,9.28899267578125,0.5022182850092649,0.060875908984243866,-0.10096242017894982
1683752238759067600,9.299067626953125,0.4284668200999498,0.030570494830608367,-0.09553498830273748
1683752238769142500,9.309142578125,0.3648486266702413,0.04700929619520902,-0.07155362607147545
1683752238779218700,9.31921875,0.2536877608209848,0.07004296578019857,0.002743343891389668
1683752238789293600,9.32929345703125,0.15392390277683735,0.10557225206196308,0.016711700021848082
1683752238799368700,9.33936865234375,0.09358312358260154,0.09314414764344692,-0.008824380838125943
1683752238809443800,9.34944384765625,0.007700491374731063,0.06754530374556779,-0.004939209967851638
1683752238819519000,9.35951904296875,-0.09274725728034973,0.06204173789322376,-0.03841572843827307
1683752238829594000,9.369593994140626,-0.13972937320768833,0.08682195888459682,-0.07223225598540156
1683752238839669200,9.379669189453125,-0.10669862574338912,0.09770575647056103,-0.009186601746641099
1683752238849745200,9.3897451171875,-0.05497253015935421,0.0515504467561841,0.016674729012325404
1683752238859820000,9.399820068359375,-0.019667408022284505,-0.012473112604022025,0.07027352313306182
1683752238869895200,9.409895263671874,0.042780572584271426,-0.02272065811306238,0.11997644232641905
1683752238879970000,9.419969970703125,0.21029460929632185,0.04610533309280872,0.16191515725906938
1683752238890045200,9.430045166015624,0.2236333988189697,0.026389117492735384,0.10876001525260508
1683752238900120000,9.4401201171875,0.13372867148816583,-0.04396130680143833,0.102521705384925
1683752238910196000,9.450196044921874,0.07874211280345916,0.0541340335085988,0.14582396375574172
1683752238920271000,9.46027099609375,-0.013855506873130797,0.07395517078787088,0.05072166778184473
1683752238930346200,9.47034619140625,-0.16132979511916637,-0.09228840759694576,-0.2012393057791516
1683752238940421000,9.480421142578125,-0.34318799900412555,-0.2692152925595641,-0.44835912291929125
1683752238950496300,9.490496337890624,-0.45629240013659,-0.30038696815371513,-0.49798521401677276
1683752238960571100,9.500571044921875,-0.49260991418659683,-0.02095335617959499,-0.06606788813676685
1683752238970647000,9.51064697265625,-0.4609843573451042,0.144468968950212,0.13462174787037073
1683752238980722200,9.52072216796875,-0.40979134572446346,0.10096855765879154,0.1364206505184993
1683752238990797000,9.530797119140624,-0.23951193595230577,-0.015977321332693098,0.07213358138389885
1683752239000872200,9.5408720703125,-0.05259118798077106,-0.06970277404040098,0.07161854453384876
1683752239010947300,9.550947265625,0.07028057392835617,-0.03824263689368963,0.09035718380603938
1683752239021022200,9.561022216796875,0.2310503970772028,-0.023436697427928446,0.08250800467561929
1683752239031098000,9.57109814453125,0.30428105298280717,-0.060500061409175396,0.09868081204779446
1683752239041173200,9.58117333984375,0.2846153985261917,-0.1569844593912363,0.0757138510234654
1683752239051248000,9.591248046875,0.220561151766777,-0.22129911065250635,0.04099383529797196
1683752239061323300,9.6013232421875,0.20396248366534708,-0.23425153120607137,-0.013301380121707916
1683752239071398100,9.611398193359374,0.20095745663046835,-0.24336042807400224,-0.06366451678946614
1683752239081473000,9.62147314453125,0.15869827757179736,-0.2332385547712445,-0.13858794808760286
1683752239091548200,9.631548095703126,0.3704045072317123,-0.23757424588799475,-0.2723169118367135
1683752239101624300,9.641624267578125,0.33068916743695737,-0.26032851400971413,-0.36414471618458627
1683752239111699200,9.65169921875,0.11856208201646803,-0.2234916522607207,-0.3475762240257114
1683752239121774000,9.661774169921875,0.09425473923385143,-0.136887720040977,-0.19752660539895295
1683752239131849000,9.671848876953124,0.08636778537631035,-0.11246990262120961,-0.03464797340258956
1683752239141924000,9.681924072265625,0.03341828547716141,-0.07796995938718318,0.04883205464296043
1683752239151999200,9.691999267578124,-0.030364158603549,-0.07741407907009125,-0.08790522407665848
1683752239162075100,9.7020751953125,-0.1005079544097185,-0.13552052334100007,-0.30525515871196984
1683752239172150000,9.71214990234375,-0.1438520060956478,-0.22482903834432363,-0.46453006712794304
1683752239182225200,9.72222509765625,-0.29366671998798843,-0.3444648870721459,-0.5312174388699233
1683752239192300000,9.732300048828124,-0.49237376734316346,-0.39197307270020243,-0.4822592005640268
1683752239202375200,9.742375244140625,-0.5089636676162481,-0.2689315071821213,-0.30258403980657456
1683752239212450000,9.752449951171876,-0.34000761540234087,-0.1658221381023526,-0.10813289633020758
1683752239222526000,9.76252587890625,0.031207039168477058,-0.1386605749323964,-0.030661899441108104
1683752239232601000,9.77260107421875,0.5116939693629742,-0.2277744441464543,-0.018929741397500036
1683752239242676200,9.78267626953125,0.83714523614645,-0.33367110585719345,-0.08898352083265781
1683752239252751000,9.792751220703124,0.950543067267537,-0.4804141572192311,-0.21257716727554796
1683752239262826200,9.802826171875,0.9710276368916034,-0.6564771188288927,-0.34831089497581125
1683752239272901000,9.812901123046874,0.9325000455766915,-0.7782005874857306,-0.47649289212226864
1683752239282976300,9.822976318359375,0.8329232345372438,-0.7986904178068042,-0.5914024429805577
1683752239293052200,9.83305224609375,0.8031921131402253,-0.7133399927794933,-0.6684858287915587
1683752239303127000,9.843126953125,0.7583645448982715,-0.6070213062644004,-0.7207749650858343
1683752239313202200,9.8532021484375,0.4650941307514906,-0.5662593800261616,-0.7019315867975354
1683752239323277300,9.86327734375,0.07473463072776794,-0.5503238520085811,-0.6099854167670011
1683752239333352200,9.873352294921874,-0.19747779782116412,-0.42237960914075373,-0.6076088968940079
1683752239343427000,9.883427001953125,-0.19992402192950248,-0.3327317791804671,-0.6021177521318197
1683752239353503200,9.893503173828124,-0.02980827828645706,-0.33234453342854975,-0.43103374797850846
1683752239363578000,9.903578125,-0.001648351728916168,-0.26435762339532376,-0.21295739876478909
1683752239373653200,9.9136533203125,-0.24238486104011533,-0.15590104806870222,-0.10783435177505016
1683752239383728000,9.92372802734375,-0.46639703004360195,-0.06382336061298848,-0.13456249196380377
1683752239393803000,9.933802978515626,-0.48115386967062945,0.035434301474690434,-0.14563947403430938
1683752239403878100,9.943878173828125,-0.380108739644289,0.13113923951685427,-0.052126200817525385
1683752239413954300,9.953954345703124,-0.1719154865413904,0.12324088748246431,-0.009465455220639706
1683752239424029200,9.964029296875,-0.19275895260572432,0.0343140652731061,-0.15326193173676728
1683752239434104300,9.974104248046874,-0.35164778431355953,-0.1530743002101779,-0.35283611731529235
1683752239444179000,9.984178955078125,-0.27579730129837987,-0.20089257470071314,-0.4314963970541954
1683752239454254000,9.994254150390624,-0.32201836972534653,0.012701368401944637,-0.3950271995738148
1683752239464329200,10.0043291015625,-0.22261223907768726,0.4314680477425456,0.03847819921523332
1683752239474405000,10.014405029296874,-0.5106470906585454,0.33840427185893057,0.2936670122489333
1683752239484480300,10.024480224609375,-0.9818681798577308,0.41829000173956155,0.3899193550407886
1683752239494555100,10.03455517578125,-1.1112860024094582,0.6975584862798452,0.5196995811641216
1683752239504630000,10.044630126953125,-1.0408481920927763,0.8096303294941782,0.5125239904463291
1683752239514705200,10.054705078125,-0.8995172289073466,0.815287332342565,0.39926352196931836
1683752239524780000,10.064780029296875,-0.7427320914804935,0.6246992940351367,0.4795628010869026
1683752239534855200,10.074855224609376,-0.6298118147432804,0.45499943771660323,0.44293139878213406
1683752239544931000,10.08493115234375,-0.6480863071024417,0.42886137237548827,0.22557810314595697
1683752239555006000,10.095005859375,-0.7385679575383662,0.5080635039061308,0.16758827099204063
1683752239565081000,10.1050810546875,-0.7363760004520415,0.7138122864663601,0.20461422557234762
1683752239575156200,10.11515625,-0.844657511472702,0.9322411023795604,0.2351011337727308
1683752239585231000,10.125231201171875,-1.0571838253438472,0.9188678260654211,0.35546821938455103
1683752239595306200,10.13530615234375,-1.0117220508515834,0.8800812915533781,0.4874000705838203
1683752239605382100,10.145382080078125,-0.861149796590209,0.8380728723853826,0.4811754969805479
1683752239615457000,10.15545703125,-0.8671814779698849,0.7996499104887247,0.37955285932719707
1683752239625532200,10.1655322265625,-0.9622136313170194,0.7072761626958847,0.1546007791250944
1683752239635607300,10.175607177734374,-1.021344450199604,0.7015045935571194,-0.07295125444233418
1683752239645682200,10.18568212890625,-1.025503323444724,0.7611579750090837,-0.12575170125961302
1683752239655757300,10.19575732421875,-1.172818037214875,0.961231634542346,0.13569617216885088
1683752239665833200,10.205833251953125,-1.1357137567013502,1.2393278604328632,0.49693654521405695
1683752239675908000,10.215908203125,-0.6893558906018734,1.468904677826166,0.7769009030640125
1683752239685983200,10.225983154296875,-0.02643383341729641,1.6076578994780777,0.9268477189034223
1683752239696058000,10.23605810546875,0.40357670899331566,1.5551584814339876,1.040568790629506
1683752239706133200,10.24613330078125,0.4569833050101995,1.5056319417208432,1.007241106045246
1683752239716208000,10.2562080078125,0.22553075687289237,1.4800100092083215,0.8702478798031806
1683752239726283000,10.266282958984375,-0.2846849566310644,1.4197288512468338,1.0105518380284308
1683752239736359200,10.276359130859374,-0.6298328575313091,1.608451680204272,1.183191547191143
1683752239746434300,10.286434326171875,-0.7639812157362699,1.8323428531765937,1.3632359796524047
1683752239756509200,10.29650927734375,-0.530070168530941,1.9260130705207585,1.5513801319390534
1683752239766584000,10.306583984375,-0.05253332031369209,1.8703180713057517,1.648686075437069
1683752239776659200,10.3166591796875,0.35120413219928737,1.7062129662543535,1.563104472002387
1683752239786734000,10.326734130859375,0.7667845827192068,1.455083365483582,1.3046803303092718
1683752239796810200,10.336810302734374,1.241595805364847,1.204564590087533,0.9686959790736436
1683752239806885000,10.346885009765625,1.6081588347375393,0.9957073201179504,0.6727326725810766
1683752239816960000,10.3569599609375,1.8724737880349158,0.8732458925753831,0.44998482442498206
1683752239827036200,10.3670361328125,1.86151867877841,0.687649963466823,0.20730010365545748
1683752239837111300,10.377111328125,1.340148534053564,0.4220271424412727,0.008481412619352341
1683752239847186200,10.387186279296875,0.5779618005186319,0.2741793447077274,-0.16251520551145077
1683752239857262000,10.397261962890624,-0.11406827772855758,0.2395262567386031,-0.15459084225296973
1683752239867337200,10.407337158203125,-0.681178429365158,0.1389569275304675,-0.13541092548668385
1683752239877412000,10.417412109375,-0.9912696299314498,-0.004085515747964382,-0.12644728230834007
1683752239887487200,10.4274873046875,-1.01739834292233,-0.1666226408302784,-0.055169514036178584
1683752239897562000,10.43756201171875,-0.8043389450877905,-0.46137686379402876,0.14912673162817955
1683752239907637000,10.447636962890625,-0.41673663481771944,-0.23705519044995307,-0.42274493532180785
1683752239917712100,10.457712158203124,-0.5013783270537853,-0.30557547670751806,-0.9608709845364093
1683752239927788300,10.467788330078125,-0.5395856003731488,-0.774712160848081,-0.8690645152375102
1683752239937863200,10.47786328125,-0.7590355760276317,-1.108046582096815,-1.0464806450217963
1683752239947938300,10.487938232421875,-0.8943582387089729,-1.1931687513262033,-1.3286007196009157
1683752239958013200,10.49801318359375,-0.9186486303567886,-1.1993377953499555,-1.416765033005178
1683752239968088000,10.508088134765625,-0.7810399025648832,-1.2838728123411536,-1.3204483928054571
1683752239978163200,10.5181630859375,-0.5063549464225768,-1.3112681842669844,-1.2134326639369128
1683752239988239000,10.528239013671875,-0.07491817060112953,-1.3246663027614354,-1.196707154585421
1683752239998314200,10.538314208984374,0.3588543546915054,-1.3615519720882177,-1.2660139150455594
1683752240008389000,10.54838916015625,0.45270635834336276,-1.4680463074311614,-1.3786483605787156
1683752240018464000,10.558464111328124,0.1548451092749834,-1.5969032812297344,-1.521110081359744
1683752240028539100,10.5685390625,-0.30599837829470633,-1.6992384510666132,-1.7150430461809039
1683752240038614000,10.578614013671874,-0.6292196940690279,-1.7151076358497142,-1.8020418229371309
1683752240048690200,10.588690185546875,-0.7110679561942815,-1.6488140857309102,-1.7269959343031047
1683752240058765000,10.59876513671875,-0.626181349286437,-1.5528528348401187,-1.5710209442153573
1683752240068840000,10.60883984375,-0.4356126002013683,-1.4392878304585814,-1.4071724442735314
1683752240078915000,10.6189150390625,-0.23490181180834768,-1.3007239938989281,-1.3215665831804275
1683752240088990200,10.628990234375,-0.12128770758807658,-1.1782929614946245,-1.3068857313990592
1683752240099065000,10.639065185546874,-0.1476683495134115,-1.113425352525711,-1.3452555018037557
1683752240109141000,10.64914111328125,-0.34437340939641,-1.0519666752174497,-1.304383393189311
1683752240119216000,10.659216064453124,-0.576779312735796,-0.9387278340503573,-1.2437412929609417
1683752240129291000,10.669291015625,-0.7751198648661375,-0.8067106426551938,-1.2665154348269103
1683752240139366100,10.6793662109375,-0.9114894062519073,-0.6817115133285522,-1.2448518845513463
1683752240149441300,10.689441162109375,-1.0225725306898354,-0.5600231159850955,-1.0672262036696076
1683752240159516200,10.69951611328125,-1.0384276869475841,-0.3659843527019024,-0.8362301671281457
1683752240169591300,10.70959130859375,-1.0866659404158592,-0.20268296524882315,-0.6482546494066714
1683752240179667200,10.719667236328124,-1.2083066992253064,-0.09923954190909862,-0.4520119463384151
1683752240189742000,10.7297421875,-1.2565315086901188,0.022810382223129273,-0.2934825955927372
1683752240199817200,10.739817138671874,-1.3437597102880476,0.15109335552603007,-0.20641952142864464
1683752240209892000,10.74989208984375,-1.427895206567645,0.21135463974326849,-0.12626637278348207
1683752240219967200,10.75996728515625,-1.4176555521041154,0.26707886505275963,-0.16360680014044046
1683752240230042000,10.7700419921875,-1.2007733811110257,0.26254560553729533,-0.22770663960725068
1683752240240118000,10.780117919921874,-0.9451450076162815,0.15244886178821324,-0.22751199381798504
1683752240250193200,10.790193115234375,-0.7801648732960224,0.0321092487052083,-0.264002818608284
1683752240260268300,10.800268310546874,-0.7455518250763415,0.027460546116530895,-0.316377733489871
1683752240270343200,10.81034326171875,-0.70926178355515,0.08805062389671801,-0.36902415878921746
1683752240280418000,10.82041796875,-0.5864315227001905,0.1111985675111413,-0.348306657192111
1683752240290493200,10.8304931640625,-0.44127837087810035,0.06882657572776078,-0.30279373703449963
1683752240300569000,10.840569091796874,-0.38018355844616886,0.08681757497042417,-0.2932107929140329
1683752240310644200,10.850644287109375,-0.41776422429978843,0.12900164296627045,-0.32050270446538925
1683752240320719400,10.86071923828125,-0.5468903704285621,0.1997802295446396,-0.3420417515784502
1683752240330794000,10.8707939453125,-0.599964958012104,0.3216433989331126,-0.37404900121390816
1683752240340869000,10.880869140625,-0.5061076936632395,0.39560324589610096,-0.31540567358732224
1683752240350944000,10.890944091796875,-0.2930979801893234,0.4589882150918245,-0.22540420788377521
1683752240361020200,10.901020263671874,-0.09608370822668075,0.6159951785758138,-0.29060499432981013
1683752240371095300,10.91109521484375,0.14224749350845814,0.584504061768949,-0.215850197596848
1683752240381170000,10.921169921875,0.37323476222157476,0.4052288601145148,0.0689461104542017
1683752240391245000,10.9312451171875,0.575645340269804,0.38855595773309465,0.16323767456710336
1683752240401320200,10.9413203125,0.7323749481171369,0.529538545872271,0.1181175531193614
1683752240411395000,10.95139501953125,0.6874713920295238,0.5402484481960534,0.0492160124592483
1683752240421471200,10.96147119140625,0.5590834970474243,0.5397369915425777,0.06456774923950433
1683752240431546000,10.971546142578125,0.43987551834285255,0.5847817096665501,0.13441869957894087
1683752240441621000,10.98162109375,0.39576223585009573,0.6440805785924196,0.18723828948810695
1683752240451696000,10.991696044921875,0.43999476080834865,0.7051859124183655,0.27550387130975723
1683752240461771300,11.001771240234374,0.6020902796030044,0.7626815313145517,0.3061149904116988
1683752240471846100,11.01184619140625,0.9078180242627859,0.7986819422394037,0.38438057174459095
1683752240481921300,11.02192138671875,1.2318880658209324,0.7412851075425744,0.4723158986985683
1683752240491997200,11.0319970703125,1.497584828865528,0.7053861111655831,0.5254746574342251
1683752240502072000,11.042072021484374,1.6889561265051365,0.6755842626199126,0.5800595034502446
1683752240512147200,11.052147216796875,1.8512977290153503,0.680824209100008,0.6110333183847367
1683752240522222000,11.06222216796875,2.0158932479321954,0.664102499140799,0.6033942018084227
1683752240532297200,11.072297119140625,2.09850548016727,0.6366036668404936,0.5348682164624333
1683752240542372400,11.082372314453124,2.1152344966500998,0.6023772798508406,0.4626281790293753
1683752240552448000,11.092447998046875,2.1062416273772717,0.6344482423722744,0.4410105137221515
1683752240562523100,11.102523193359374,2.038518921238184,0.7159317628383636,0.4709318969942629
1683752240572598300,11.112598388671875,2.0112439608216284,0.7652835305064917,0.5346428832739591
1683752240582673200,11.122673095703124,2.002500097873807,0.8035258751392365,0.5371770779266953
1683752240592748300,11.132748291015625,2.0269769520044325,0.8043810306638479,0.5228494234971702
1683752240602823200,11.1428232421875,2.169447732874751,0.7528387672141194,0.532729085541889
1683752240612899000,11.152899169921875,2.349500933164358,0.7510989378094672,0.494936165177077
1683752240622974200,11.16297412109375,2.5236697515904902,0.7590753235161304,0.4040341704372316
1683752240633049300,11.17304931640625,2.709209858858585,0.7495294965356588,0.22105558422021568
1683752240643124200,11.183124267578124,2.797402521574497,0.722387807109952,0.06323562385290861
1683752240653199000,11.19319921875,2.6515081959962843,0.6127157185137272,-0.08710574426203965
1683752240663274000,11.20327392578125,2.3153905737698075,0.5700543883949518,-0.2792991719394922
1683752240673350100,11.21335009765625,1.8762883778870105,0.6283402808859944,-0.30631095137521624
1683752240683425300,11.22342529296875,1.3987649736732244,0.7421519535049795,-0.14640293268747626
1683752240693500200,11.233500244140625,0.9279010273486376,0.9190519504606723,0.13691628854833543
1683752240703575000,11.243574951171874,0.7335375621557235,1.0285726478874684,0.46313408272489903
1683752240713650200,11.253650146484375,0.7604366749972105,1.047594451482594,0.6373235786128789
1683752240723725000,11.26372509765625,0.9407505720496178,0.9495543484911322,0.6203490629363805
1683752240733800200,11.27380029296875,1.0780921733379363,0.7538432680815458,0.4746819702427834
1683752240743876000,11.2838759765625,1.0501713162332773,0.5664294758960604,0.19711890138089655
1683752240753951000,11.293950927734375,0.6818722568482161,0.40921091548800465,-0.03865720904394984
1683752240764026000,11.304026123046874,0.07794716303348541,0.3205266698628664,-0.17514120712224393
1683752240774101200,11.314101318359375,-0.4033621894598007,0.3494333231344819,-0.3289018456287682
1683752240784176000,11.324176025390624,-0.6080266839146614,0.4021329399257898,-0.4166019025221467
1683752240794251300,11.334251220703125,-0.6558622018009423,0.3520090188413858,-0.39918632854726166
1683752240804327200,11.3443271484375,-0.8439461483329534,0.20585428876131773,-0.3451573263157159
1683752240814402000,11.354402099609375,-1.1967477788567542,0.10515051951855421,-0.32619244053959845
1683752240824475600,11.3644755859375,-1.5769430277407168,0.1612124523498118,-0.3035101964744739
1683752240834550800,11.37455078125,-1.8906565104573965,0.27180004835575816,-0.2282740459653549
1683752240844625700,11.384625732421876,-2.112085677230358,0.3441134432859719,-0.1529718627490103
1683752240854700800,11.39470068359375,-2.2129981207877396,0.33186449482664465,-0.13513908627536148
1683752240864777000,11.40477685546875,-2.394714870375395,0.19262524322345853,-0.135515993296355
1683752240874851600,11.4148515625,-2.4064257664352655,-0.008505231886357068,-0.11299553393051028
1683752240884926700,11.4249267578125,-2.122570246365666,-0.09961027491763233,-0.10182269027009606
1683752240895001600,11.435001708984375,-1.7759990346640346,-0.10495397403314709,-0.14770648956671356
1683752240905076700,11.44507666015625,-1.4962982961863278,-0.140939479649812,-0.14843604595027862
1683752240915152000,11.45515185546875,-1.3765502192556858,-0.2287862515375018,-0.16419884774945676
1683752240925227800,11.465227783203124,-1.4079431363850832,-0.2615095404878259,-0.21108568660877644
1683752240935302700,11.475302734375,-1.3798054216593503,-0.291689720826596,-0.21865670638494192
1683752240945377800,11.485377685546876,-1.2760416803240775,-0.31934023655727506,-0.22057138089984654
1683752240955452700,11.49545263671875,-1.213497838127613,-0.2552950498871505,-0.14486308283433316
1683752240965527800,11.50552783203125,-1.2690011141628026,-0.14465923082530496,-0.04417845668345689
1683752240975603000,11.51560302734375,-1.3893278677642344,-0.0853777514256537,0.01455444892272353
1683752240985678600,11.5256787109375,-1.4115297627002,-0.08345672023519873,0.06731295629441737
1683752240995753700,11.535753662109375,-1.291171444916725,-0.059859571548551316,-0.03841127145886421
1683752241005828900,11.545828857421874,-1.100122218838334,-0.10766440203562379,-0.1867997519403696
1683752241015903700,11.55590380859375,-0.8305950838506221,-0.2318789568558335,-0.3311747589968145
1683752241025979000,11.565978759765626,-0.5683721343964337,-0.3383072412252426,-0.48762730346843597
1683752241036053800,11.5760537109375,-0.2882973019093275,-0.36877018402814865,-0.43629386046379803
1683752241046128600,11.586128662109376,-0.05866612398028374,-0.32678719156235453,-0.2661301860257983
1683752241056204800,11.596204833984375,0.056174891686439514,-0.20090660322606563,-0.036161446705460544
1683752241066279700,11.60627978515625,0.05330196659862995,-0.0516200048610568,0.28728447160497306
1683752241076354800,11.616354736328125,-0.10813830315768717,0.06285831497311592,0.5430063686020672
1683752241086430000,11.626429931640626,-0.20682780996859074,0.1198147124260664,0.6341887146532535
1683752241096504600,11.636504638671875,-0.12863339417576788,0.10550941595882177,0.5391688362658024
1683752241106579700,11.646579833984376,-0.024140754044055936,-0.020109891092777252,0.3468924064800143
1683752241116655900,11.65665576171875,0.011693360403180121,-0.11513356887251137,0.16464724910408257
1683752241126730800,11.666730712890624,-0.032279052314162254,-0.12792641495019197,0.0038251112461090086
1683752241136806000,11.676805908203125,-0.23897183772623537,-0.1278644556298852,-0.07214052258133888
1683752241146880800,11.686880859375,-0.5154927771240473,-0.1088365145549178,-0.014448212069272994
1683752241156955600,11.69695556640625,-0.7465262230664491,-0.015892857919633387,0.09088350923508405
1683752241167030800,11.70703076171875,-0.8798293626189231,0.06907792014032602,0.2591387197032571
1683752241177107000,11.71710693359375,-0.8375064706742763,0.18877485140562056,0.3955252122238278
1683752241187181800,11.727181884765624,-0.6402636506527661,0.2532756728887558,0.4048655797600746
1683752241197256700,11.737256591796875,-0.477941337364912,0.2332163429394364,0.3070835431829095
1683752241207331600,11.74733154296875,-0.41740357429385183,0.15361556748002766,0.16584814932644365
1683752241217406700,11.75740673828125,-0.4098702561795711,0.10125555790662764,0.005589490570127964
1683752241227481900,11.76748193359375,-0.4246206660658121,0.048203474415838714,-0.12203940273821354
1683752241237557800,11.777557861328125,-0.47423780667185783,0.005079202960431575,-0.20354542729705571
1683752241247632600,11.787632568359374,-0.43061610708832737,-0.009787526781857013,-0.2475812606394291
1683752241257707800,11.797707763671875,-0.3251087369561195,-0.030785891146957872,-0.2485629651531577
1683752241267782700,11.80778271484375,-0.1985071408689022,-0.04060468984991312,-0.23133798184692858
1683752241277857800,11.81785791015625,-0.12884966727495192,-0.04371376178115606,-0.19868658908903597
1683752241287933000,11.827932861328126,-0.10438391906023024,-0.00523760839253664,-0.12854337780475616
1683752241298008600,11.838008544921875,-0.1404980194926262,0.05692103387862443,-0.04846154083013534
1683752241308083700,11.848083740234374,-0.2034095259577036,0.1258121992751956,0.018392565780878067
1683752241318158800,11.858158935546875,-0.2574807233631611,0.1602329397931695,-0.0208703540712595
1683752241328233700,11.868233642578126,-0.3048655748724937,0.17215718634277583,-0.02441167993992567
1683752241338308900,11.878308837890625,-0.22317747174501418,0.1896317604959011,-0.035274434737861154
1683752241348383700,11.8883837890625,-0.06659925506711006,0.14768091673403977,-0.01853752720952034
1683752241358459000,11.898458984375,0.021958733829855918,0.12976122916191815,0.032759529307484624
1683752241368534800,11.90853466796875,0.022685294538736342,0.16137772591412067,0.010326748225092887
1683752241378609700,11.918609619140625,-0.033254034826159476,0.17002368144541977,0.00263210206925869
1683752241388684800,11.928684814453124,-0.073102645611763,0.2050245599389076,0.009065349987149238
1683752241398760000,11.938760009765625,-0.12069967856705188,0.2460752399906516,0.012945406290888785
1683752241408834800,11.948834716796876,-0.11757950071990489,0.23146716118454932,-0.01639291639626026
1683752241418909700,11.95890966796875,-0.09203004892170429,0.26067835036069154,0.001597206063568592
1683752241428985900,11.96898583984375,-0.06433306370079517,0.29021716405600306,0.07368073776066303
1683752241439060700,11.979060791015625,-0.06007540625631809,0.3139730104357004,0.1961713913977146
1683752241449135900,11.989135986328124,-0.054881929266452786,0.38819676903188227,0.3133107471346855
1683752241459210800,11.999210693359375,-0.045938744354248044,0.4191065788194537,0.3809153798520565
1683752241469285600,12.00928564453125,0.007818564796447753,0.42555180943608284,0.3731004683174193
1683752241479360800,12.01936083984375,0.09313713338077068,0.3330164413407445,0.3256714854054153
1683752241489437000,12.02943701171875,0.24506255581676958,0.27522797697782514,0.19075462704598903
1683752241499511800,12.03951171875,0.42288872770667074,0.22733313011974096,0.028951223065704107
1683752241509586700,12.049586669921876,0.5094336232155561,0.22607728483974932,-0.03668780866712332
1683752241519661600,12.05966162109375,0.5230336940228939,0.29536124894618987,0.02052285580784082
1683752241529736700,12.06973681640625,0.5381798252284526,0.4125909133151173,0.0752352737262845
1683752241539811800,12.079811767578125,0.46874622351825235,0.5484054511666298,0.20932196487188337
1683752241549887700,12.0898876953125,0.32860476237833497,0.711617114509642,0.3885995046138763
1683752241559962600,12.099962646484375,0.3216857767701149,0.6999298915863037,0.4715905070334673
1683752241570037800,12.110037841796874,0.7046598427176475,0.5820718661859631,0.47233825666084883
1683752241580112600,12.120112548828125,1.4294623097538948,0.35509324859231706,0.22715412029102444
1683752241590187800,12.130187744140626,1.6743419102191923,0.1079284597992897,0.003963862129673362
1683752241600263000,12.140262939453125,1.807562047663331,0.027776480197906493,-0.10153072158619761
1683752241610338600,12.150338623046874,1.7611106776118277,0.03172054164856672,-0.30784758635796605
1683752241620413700,12.16041357421875,1.5905214712381361,0.044537353123724456,-0.38811223255358634
1683752241630488800,12.17048876953125,1.4301789335906505,0.05120119492709636,-0.41945053341891614
1683752241640563700,12.180563720703125,1.2484557542622088,0.19395137726068495,-0.3799294010220095
1683752241650638800,12.190638916015626,0.956285410311818,0.35348347530812024,-0.2682944879202172
1683752241660713700,12.200713623046875,0.7981237238347529,0.5767667455151677,-0.15525281329303978
1683752241670789600,12.21078955078125,0.8277659979045391,0.6289391235619783,-0.07516085678320378
1683752241680864800,12.22086474609375,0.9989017322450876,0.6907102278202771,0.05815400973968207
1683752241690939600,12.230939697265624,1.154201599550247,0.5821981229141354,0.19592866868302225
1683752241701014800,12.241014892578125,1.0592758291870354,0.44510465116798875,0.3936761502910405
1683752241711090000,12.25108984375,0.7138473577797413,0.3118031190507114,0.6752491123814135
1683752241721164800,12.261164794921875,0.5162865578502416,0.32179347492828964,0.7715269549407064
1683752241731240700,12.27124072265625,0.39837972487211226,0.567931697152555,0.6936728770181536
1683752241741315800,12.28131591796875,0.5591647455900908,0.7397869779393077,0.4783342822052538
1683752241751390700,12.291390625,0.8384253390848636,0.6344985112547874,0.26665041050761934
1683752241761465900,12.3014658203125,0.6710989338994026,0.46449572646692394,-0.05370075665786862
1683752241771541000,12.311541015625,0.11361936491727828,0.2786335476376116,-0.26577947289198633
1683752241781615600,12.32161572265625,0.4752542902380228,0.36672698776274915,0.1521548472777009
1683752241791690800,12.331690673828126,1.1939689617931841,0.7047367073461412,0.5569802411578595
1683752241801767000,12.341766845703125,0.7803928368330001,0.9937700684450567,0.9003891894362867
1683752241811841800,12.351841796875,-2.2312924868911503,1.4292323003903031,0.2758224357396364
1683752241821917000,12.3619169921875,-5.0058016241341825,0.9051509970106184,-0.632112931292504
1683752241831991800,12.37199169921875,-3.2023020036041734,-1.4003065040268003,0.5094407836087048
1683752241842066700,12.382066650390625,-0.03196165692806244,-2.1145861157439647,0.6882673647128045
1683752241852141800,12.392141845703126,0.42107378723919386,-1.6988398071378468,-1.3257216570332646
1683752241862218000,12.402218017578125,-0.8694429931610822,-1.4131361749835312,-2.6683245985016226
1683752241872292900,12.41229296875,-1.4188766183316708,-0.9114799077711999,-2.5525577001616355
1683752241882367700,12.42236767578125,-2.107880042234063,-0.5123210152201354,-1.8996902962625026
1683752241892443000,12.43244287109375,-2.2288018391191957,-0.42637642369195816,-0.7793740151792764
1683752241902517800,12.442517822265625,-1.8367039709955453,-0.2005951991893351,0.0309980725929141
1683752241912593000,12.452593017578126,-1.4127414765775204,-0.13185221009179948,0.4023869146868586
1683752241922669000,12.4626689453125,-1.0117179591983556,-0.42465895224958655,0.49627778904438014
1683752241932743700,12.47274365234375,-0.6138298172354698,-1.9062768350459633,-0.24513474427014587
1683752241942818800,12.48281884765625,-0.0024620061993598937,-2.818552277109027,-0.8901526037126779
1683752241952893700,12.492893798828124,0.24707564920485017,-1.1073431100025772,-0.5298322681218386
1683752241962968800,12.50296875,-0.6699485948204994,0.2178409330226481,-0.07102554707676172
1683752241973044000,12.5130439453125,-0.6100204880803823,0.517933594404906,0.34102073796764015
1683752241983120000,12.523119873046875,0.060384033814072605,0.24592706369161604,0.7267445410147308
1683752241993194800,12.53319482421875,-0.049936874079704284,0.04223930531442165,0.9980157431907951
1683752242003270000,12.543269775390625,-0.45776422625482077,-0.0019711539424955844,0.916015213113278
1683752242013344800,12.5533447265625,-0.37330782745778557,-0.12729966135397552,0.556388120483607
1683752242023420000,12.563419921875,0.025184710139036177,-0.24433994063064454,0.08327800266742706
