time,seconds_elapsed,z,y,x
1683743819729650400,0.035650390625,0.3290881619811058,0.017855682425200938,0.10020363770090043
1683743819739724300,0.045724365234375,0.33696751705408096,0.022923487208783625,0.036903570309653876
1683743819749798700,0.055798583984375,0.3249129221230745,0.010432546687126159,-0.04308865215275436
1683743819759872500,0.06587255859375,0.40047231323719024,-0.05051087457537651,-0.14916048776730895
1683743819769947600,0.07594775390625,0.4379617936760187,-0.16810703416913747,-0.23898203032668677
1683743819780021500,0.086021484375,0.4674187743067741,-0.2887970681250095,-0.36855018460191785
1683743819790095600,0.096095703125,0.8035808201968669,-0.2960460163399577,-0.44405090433135624
1683743819800169500,0.10616943359375,0.9390051896870135,-0.2802382063552737,-0.32070721406154334
1683743819810243300,0.116243408203125,0.8712515038877725,-0.28674978020638225,-0.34004480560757216
1683743819820318500,0.126318359375,0.8615998784452676,-0.1615069052517414,-0.3848918092023581
1683743819830392300,0.136392333984375,0.9274567907124758,0.13214490942806004,-0.2790168478667736
1683743819840466400,0.146466552734375,0.9547732521831989,0.4073851613655686,-0.13202961248531936
1683743819850540300,0.156540283203125,1.099486259022355,0.36538141837269067,0.01843830461874604
1683743819860614700,0.16661474609375,1.0722206509560346,-0.06294277838617562,0.06952822119109332
1683743819870688500,0.1766884765625,1.0159159954100847,-0.3364426163971424,-0.4834457800000906
1683743819880763600,0.186763671875,0.7890601274132728,-0.7174772387146949,-0.6335125689573585
1683743819890837500,0.19683740234375,0.5633493377983569,-0.6726660370856523,-0.7090300936911255
1683743819900911600,0.20691162109375,0.4501017288029194,-0.2752361602842808,-0.8452690674997866
1683743819910985500,0.2169853515625,0.3719558283269405,0.039269349592924115,-0.630165888877958
1683743819921059300,0.227059326171875,0.2026595843732357,0.2534662270247936,-0.3611453151728958
1683743819931133400,0.237133544921875,-0.10842647244930266,0.4302043114170432,-0.18551811463199555
1683743819941208300,0.247208251953125,-0.42693069657385346,0.6973045115187764,-0.32326997722163797
1683743819951282400,0.257282470703125,-0.5890431665033101,0.9361977310508489,-0.5632846019990742
1683743819961356300,0.267356201171875,-0.6467781471133232,1.1712877589076758,-0.8105433526858687
1683743819971430700,0.2774306640625,-0.7400292622625827,1.155475565008819,-0.9061050097998231
1683743819981504500,0.28750439453125,-1.0082494063049554,0.8546654030069708,-0.8374787058845162
1683743819991578400,0.297578369140625,-1.0511053822129963,0.6438645977541804,-0.7210466946993023
1683743820001653500,0.307653564453125,-0.6876280438959598,0.6594038199305534,-0.6969375779025256
1683743820011727400,0.317727294921875,-0.1711883413106203,0.8352110532134771,-0.8029230138752609
1683743820021801500,0.327801513671875,0.5078209273219109,1.397689453396201,-1.2739401780001818
1683743820031875300,0.337875244140625,0.9763111302524804,1.89819362796396,-1.7764315808624027
1683743820041949400,0.347949462890625,0.8849906909048557,2.1988293101817367,-2.005820766729116
1683743820052023300,0.358023193359375,1.0210615416049957,2.208888055120408,-1.820964696202427
1683743820062098400,0.368098388671875,2.0141893666237594,2.033346779297292,-1.5877210268646478
1683743820072172300,0.37817236328125,3.0386078174412248,1.7941551613405347,-1.1558828306354583
1683743820082246700,0.38824658203125,4.1351252897858615,0.9762588155433535,-0.46211058489605783
1683743820092320500,0.398320556640625,5.150040583720803,0.18225217163860796,-0.03181947197839618
1683743820102394400,0.408394287109375,5.356196193516254,-0.19027444231361149,0.06659867054522037
1683743820112468000,0.418468017578125,4.828399815136194,-0.4607373968467116,-0.6258827316660434
1683743820122542000,0.4285419921875,3.288805398058891,-1.1863269226074218,-0.9020853988949209
1683743820132616000,0.438615966796875,2.2443191417247057,-1.6493214507311582,0.2743862654566765
1683743820142690000,0.44868994140625,1.2027934887617826,-1.2584259441345929,1.2918518283963203
1683743820152764200,0.45876416015625,2.3173972374171017,-0.554080281932652,2.0936758680537344
1683743820162838000,0.468838134765625,3.69895973187685,-0.044486499719321726,2.7905194840624925
1683743820172913200,0.4789130859375,4.404517984738946,0.20638386559337377,2.9036732772946356
1683743820182987000,0.488987060546875,3.741155198049545,0.6672554102137684,3.577956101927161
1683743820193061000,0.49906103515625,3.814111713188886,0.9456927046269178,4.034583140845597
1683743820203135000,0.509135009765625,4.258078884759545,0.7049713928848504,3.839077519880235
1683743820213209000,0.519208984375,4.706801726424694,0.6297498554229736,2.7284026351064443
1683743820223283000,0.529282958984375,4.808669863271713,0.8483493517279624,0.8975186024360359
1683743820233358000,0.539358154296875,3.95522991040647,0.8871820634692906,-0.7698126983687281
1683743820243432000,0.549431884765625,2.881533341678977,0.9529027821362018,-1.8281316652223467
1683743820253506000,0.559506103515625,1.773337121978402,0.8932368334636092,-2.7214003551289436
1683743820263580200,0.569580078125,1.474984874522686,0.8669128901615738,-3.2499399530917406
1683743820273654000,0.579654052734375,1.9275655606597661,0.9544602407112717,-3.3697906136140223
1683743820283728100,0.58972802734375,1.1890741754889487,0.9657716160595416,-2.783789883546531
1683743820293803000,0.599802978515625,0.20653028832674025,1.4517571436703205,-1.8239447349265216
1683743820303877000,0.609877197265625,0.13338146548569202,2.28898742775172,-1.0865852763950825
1683743820313951000,0.619950927734375,0.09629764323830604,2.905839807678759,-0.5782704280763864
1683743820324024800,0.63002490234375,-0.08026829945743083,3.1491230788633224,0.06378945834338665
1683743820334099000,0.640098876953125,-0.37928982447683807,2.8492116192668675,0.6996560430809855
1683743820344173000,0.650173095703125,-1.109396827661991,2.2834736327663063,0.2003361098617315
1683743820354248000,0.660248046875,-1.8449521593809126,1.7750316509366035,-0.92470719974339
1683743820364322000,0.670322021484375,-2.4370266564041376,1.3958968708910047,-1.6605504084929823
1683743820374396200,0.680396240234375,-2.736938992783427,1.0139455721199513,-1.8868863442689179
1683743820384470000,0.690469970703125,-2.7800591725856063,0.5352710981748998,-2.106167977619171
1683743820394544000,0.700544189453125,-3.3664129538744687,0.24736907919347284,-2.409712533020973
1683743820404618000,0.710617919921875,-4.818659926888347,0.21991788542717694,-2.4470213961958884
1683743820414693000,0.720693115234375,-5.912645250406861,0.37796632078811526,-1.783924566966295
1683743820424767000,0.73076708984375,-6.118306354683638,0.6697463502466678,-0.7793149784684181
1683743820434840800,0.7408408203125,-5.65704727205038,0.8175722284093498,-0.1414075355529785
1683743820444915000,0.7509150390625,-4.794242109468579,0.7103940024554729,-0.15338614263832567
1683743820454989000,0.760989013671875,-3.5922190205574034,0.3056878510408103,-0.4250952978402376
1683743820465063200,0.771063232421875,-2.241166230651736,-0.3306364143364131,-0.6684171474695205
1683743820475138000,0.781137939453125,-1.4214754026532173,-0.6978909331046045,-0.6819342161685228
1683743820485212200,0.791212158203125,-1.5807506033301353,-0.996787078178674,-0.8416489773064851
1683743820495286000,0.8012861328125,-2.407711130070686,-1.9609497977368533,-1.3726315845072268
1683743820505360100,0.811360107421875,-3.552502511718869,-2.2754300270423293,-1.3311293612957
1683743820515434000,0.82143408203125,-4.4437423261463636,-1.3921753661498426,-0.6936638169288635
1683743820525507800,0.8315078125,-4.489752382171154,-0.4317509563371539,-0.5304653053283691
1683743820535583000,0.8415830078125,-4.225437428873777,-0.09229235311970115,-0.6372247213482857
1683743820545656800,0.85165673828125,-3.6648663236171006,-0.5111966873653233,-0.8899638031423092
1683743820555731000,0.86173095703125,-2.8972856220841408,-1.2436819639891386,-1.0935738201081753
1683743820565805000,0.87180517578125,-1.84842597297132,-1.6794629064947366,-0.8747311626970767
1683743820575879200,0.881879150390625,-0.5938017592072486,-1.578092636167258,-0.42296471555233
1683743820585954000,0.8919541015625,0.49116263798773285,-1.2707752842284739,-0.24855332054197787
1683743820596028200,0.902028076171875,1.2674725894212722,-0.983906115426123,-0.1222545067936182
1683743820606102000,0.91210205078125,1.6499346141934395,-0.7481532397463917,0.0024245967984199523
1683743820616176000,0.922176025390625,1.7124755337804556,-0.5679620922908186,-0.2071598184019327
1683743820626250000,0.93225,1.6922089908212423,-0.32195845623165364,-0.13037293131947517
1683743820636323800,0.94232373046875,1.6088918251872062,-0.06380144104212522,-0.24890286463201045
1683743820646399000,0.95239892578125,1.7688363034278154,0.21961283806599674,-0.2951958292514086
1683743820656472800,0.962472900390625,2.0397242053747178,0.20353841303437947,0.177244572609663
1683743820666547000,0.972546875,2.2567887471973895,0.382430752851069,0.3404547746479511
1683743820676621000,0.98262109375,2.431346857202053,0.7736826716698706,0.44193186635077
1683743820686695200,0.992695068359375,2.721698753553629,1.3240785660013557,0.5744061538636684
1683743820696769000,1.00276904296875,3.128838707986474,1.8655536333829164,0.5600614021688699
1683743820706844200,1.01284423828125,3.718116852289438,2.1893344827361405,0.3897720555245876
1683743820716918000,1.02291796875,4.072721732842922,2.344552370846271,0.5717617768347263
1683743820726992100,1.0329921875,4.202403174766898,2.516803372952342,0.9421844042450189
1683743820737066000,1.04306591796875,4.350743139931559,2.603017429071665,1.2923042483389378
1683743820747139800,1.053139892578125,4.304084849131107,2.4856328664019705,0.8996277035444974
1683743820757214000,1.0632138671875,3.94916900293231,2.363618890365958,0.19032792606651783
1683743820767288800,1.073288818359375,3.3035154759347436,2.4781600463032722,-0.15881225934028625
1683743820777363000,1.083363037109375,2.667029590255022,2.7862358153939244,-0.13476269071102143
1683743820787437000,1.09343701171875,2.2260148387491703,2.845190400926769,-0.24442367339134216
1683743820797511200,1.10351123046875,2.1289467956602572,2.5074329025387763,-0.5070563726902008
1683743820807585000,1.1135849609375,1.8165578395456075,1.8599429538942873,-1.0463473740309477
1683743820817659100,1.1236591796875,0.8042132728815078,1.453838187728077,-1.4691870018988846
1683743820827734000,1.133734130859375,-0.506751836785674,1.5430020335637031,-1.3798428310602902
1683743820837808000,1.14380810546875,-1.6097832210689782,1.8024506959989666,-1.6834639588296412
1683743820847882000,1.153882080078125,-2.8577357019841667,1.535463308621943,-2.154326736110449
1683743820857955800,1.163955810546875,-4.394219878086448,0.5634986831411719,-2.7175147458672524
1683743820868030000,1.174030029296875,-6.092781452804804,-0.47931401395760476,-3.1723966946840285
1683743820878104000,1.18410400390625,-7.26824562061429,-1.023681807105988,-3.249430250003934
1683743820888179000,1.194178955078125,-7.591285150080918,-1.346160195558518,-3.175756526505947
1683743820898253000,1.204253173828125,-7.264130001989007,-1.7848529338575898,-2.9066560924977063
1683743820908327200,1.2143271484375,-6.660687723255157,-2.0832252011880277,-2.4861136356562374
1683743820918401000,1.224401123046875,-6.396330099859833,-2.3848237370885905,-2.310958728802204
1683743820928475100,1.23447509765625,-6.358171926379203,-2.707117562754452,-2.1037422117769715
1683743820938549000,1.244549072265625,-6.471546961146593,-2.8893934075295924,-1.8389152173042296
1683743820948624100,1.2546240234375,-6.348214595988392,-2.8686913957625624,-1.5865303557753563
1683743820958698000,1.264697998046875,-5.971596621069311,-2.8582962584763765,-1.2894424291670321
1683743820968771800,1.274771728515625,-5.547731157284975,-2.8772254153519867,-1.1490046154290436
1683743820978846000,1.284845947265625,-5.062411400106549,-2.9061522346287965,-1.0129343492507934
1683743820988920000,1.294920166015625,-4.464308728834986,-2.711879370328784,-0.6421317826122045
1683743820998994200,1.304994140625,-3.8053947382479905,-2.457721946169436,-0.2078524768412113
1683743821009069000,1.315069091796875,-3.114716074609756,-2.1807675837904212,0.2252156995743513
1683743821019143200,1.32514306640625,-2.445589902088046,-1.9177917701423166,0.5021516495138406
1683743821029217000,1.335217041015625,-1.8006266954421997,-1.6169877456203101,0.5472241324275732
1683743821039291100,1.345291015625,-1.267509998822212,-1.3365075472027061,0.5181213720619678
1683743821049365000,1.355364990234375,-0.9346358885616064,-1.118802442454174,0.2664256618410349
1683743821059438800,1.36543896484375,-0.8734744406342506,-0.9205924579009414,-0.16373919434845446
1683743821069514000,1.375513916015625,-0.6715519383639097,-0.5441911944724619,-0.20896657556295395
1683743821079587800,1.385587890625,0.04795183774232864,-0.005810951301082968,0.15824585762917995
1683743821089662000,1.395661865234375,1.3726643177330493,0.3397155736532062,0.6838952871084213
1683743821099736000,1.405736083984375,2.767392583236098,0.518735923763737,0.9855652808099985
1683743821109809400,1.415809326171875,3.7200890291452406,0.6726965783543885,1.1404402007013559
1683743821119883500,1.425883544921875,4.25872361240387,0.583181215667352,1.141897998294234
1683743821129958400,1.43595849609375,4.491149974009394,0.47687896883040665,1.1530302176833152
1683743821140032500,1.446032470703125,4.3920717601418495,0.7604818293131888,1.1528987002581357
1683743821150106400,1.4561064453125,4.2128766379863025,1.3191807109571994,1.1246592787235974
1683743821160180500,1.466180419921875,4.101071629014611,1.739986933301389,1.3012298975944518
1683743821170254600,1.476254638671875,3.871999838533997,1.8862115137472748,1.2991530913203955
1683743821180329500,1.48632958984375,3.7265737149894234,2.012757287994027,1.3291741355746984
1683743821190403600,1.496403564453125,3.6056764680236575,2.0754015218250452,1.5763620129823683
1683743821200477400,1.5064775390625,3.5169437070816754,2.031320680297166,1.617905737248063
1683743821210551600,1.516551513671875,3.3336803125739096,1.9553107689365743,1.5213824685603379
1683743821220625400,1.52662548828125,3.0186826352655887,1.9396020354121923,1.3402823895663023
1683743821230699500,1.536699462890625,2.851180288991332,1.9025576683923602,1.1059142462432383
1683743821240773400,1.5467734375,3.008144874638319,1.9773279549553988,1.5833657542645931
1683743821250848500,1.5568486328125,3.4002503415465353,2.2111311578720807,2.359127424165606
1683743821260922400,1.56692236328125,3.1909979347795248,2.520134270940721,2.498093411785364
1683743821270996200,1.576996337890625,2.438870238444209,2.9255665446728467,2.6132693584948776
1683743821281070600,1.587070556640625,1.7672879049420356,3.5200545325785875,2.8391479058921334
1683743821291144400,1.59714453125,1.4131161551088094,4.088730033835769,3.1921903594344854
1683743821301219600,1.607219482421875,1.3547773633867501,4.457562469445168,3.4848856040418146
1683743821311293400,1.61729345703125,1.5902110901147126,4.61934088511467,3.436439260780811
1683743821321367600,1.627367431640625,1.8605264528706669,4.83588695602119,3.443288103762269
1683743821331441400,1.63744140625,2.5119535948336122,5.3821980652570725,3.4720658699572082
1683743821341515500,1.647515625,2.4038293202012775,5.469605130553245,3.463163017055392
1683743821351589400,1.65758935546875,0.9238678263098001,5.216424150210619,3.4524873092621564
1683743821361664500,1.66766455078125,-0.5678524944365024,5.274656558948755,2.6314503273516894
1683743821371738400,1.67773828125,-1.3650969512186943,5.837581533855199,1.6143272942394018
1683743821381812200,1.687812255859375,-2.0944173340708017,6.0500458884060375,0.21359891153872013
1683743821391886600,1.697886474609375,-3.3194343450784682,5.900445694047212,-1.3322738551557063
1683743821401960400,1.70796044921875,-4.606882385557889,5.396778379273414,-2.825035209387541
1683743821412034600,1.71803466796875,-5.359788665050268,4.601829486082494,-4.4130081651866435
1683743821422109400,1.728109375,-5.3733121634900565,3.7996658392071723,-5.082684957328438
1683743821432183600,1.73818359375,-4.0818578099787235,3.2097377065628767,-4.8071881002813575
1683743821442257400,1.74825732421875,-2.3947569559514523,2.97293152243793,-4.782242459595203
1683743821452331500,1.75833154296875,-0.6845755975227803,2.3207693441987036,-5.087379252624512
1683743821462405400,1.7684052734375,0.8345856878567487,1.4124743500739336,-5.947683830562234
1683743821472479200,1.778479248046875,1.7863615848548708,0.679516633632779,-7.166508416670561
1683743821482554400,1.788554443359375,2.3856471823006866,-0.19700024343729017,-8.268107137802243
1683743821492628200,1.798628173828125,2.551535079115629,-1.1691454861819743,-8.87640270178616
1683743821502702600,1.80870263671875,2.6321067454338074,-1.819658143648505,-8.731945131012797
1683743821512776400,1.8187763671875,2.778092256426811,-2.1966975588500497,-8.146112743249535
1683743821522850600,1.8288505859375,2.885046902757883,-2.337564996176958,-7.568720267051458
1683743821532924400,1.83892431640625,3.2703368444323537,-2.3883839137881995,-6.780524647513031
1683743821542999600,1.84899951171875,3.806965933087468,-2.587262810578942,-6.403291171044111
1683743821553073400,1.859073486328125,4.442816443473101,-2.9470833799540994,-6.197812437596917
1683743821563147500,1.8691474609375,4.898823596927524,-3.394536055552959,-6.109543202513456
1683743821573221400,1.879221435546875,5.148080681824684,-3.7366713306337593,-6.277985459986328
1683743821583295200,1.889295166015625,5.31554620321989,-4.0213077719479795,-6.10714958537519
1683743821593369600,1.89936962890625,5.4260956591725344,-4.127306724989414,-5.8961588105082505
1683743821603444200,1.9094443359375,5.575188488531112,-4.225532121419906,-5.85621258456707
1683743821613518600,1.9195185546875,5.503081868219375,-4.24333665817976,-5.71299770733118
1683743821623592400,1.929592529296875,5.40159776225388,-4.1209149781256915,-5.594070883655548
1683743821633666600,1.93966650390625,4.962394444084167,-3.915111835029721,-5.424100685963034
1683743821643740400,1.949740478515625,4.382233672216534,-3.403686161214113,-4.919663555860519
1683743821653814500,1.959814453125,4.858374097639322,-2.396404138636589,-3.6502684739440676
1683743821663889400,1.969889404296875,5.992586217606068,-1.0511369463950395,-1.4307716387867926
1683743821673963500,1.979963623046875,6.609824966502189,0.951688145649433,1.6637281617462634
1683743821684037400,1.990037353515625,6.267889013385773,3.6359459340810774,4.752633503273129
1683743821694111200,2.000111328125,3.7240316292911766,5.383192336991429,6.19211860986948
1683743821704185600,2.010185546875,0.39473230828046796,5.2227486770570275,5.78457708889842
1683743821714259500,2.020259521484375,-2.060652427113056,4.272143065947294,4.1350194913238285
1683743821724334600,2.03033447265625,-2.9544056856662033,3.297604790586233,2.4344214423418045
1683743821734408400,2.040408447265625,-1.7633154941797256,2.633573018594086,1.2670482265293597
1683743821744482600,2.050482666015625,-0.28293606713712216,2.7991274456709623,0.1760077242910862
1683743821754556400,2.060556396484375,1.637920935794711,1.6671058214858174,-0.35656478244960305
1683743821764630500,2.070630615234375,2.1083990976721045,1.1045394507586956,0.08654197289943695
1683743821774704400,2.080704345703125,1.9020178624272346,0.9218570710092783,0.6589549071192741
1683743821784779500,2.090779541015625,1.4085621450662613,0.7407151987001299,0.8443202423423528
1683743821794853400,2.100853271484375,0.6425596526354551,0.38478345345705744,0.7708680526405572
1683743821804927200,2.11092724609375,-0.5107026202380657,-0.07220598903298378,0.3780313488483429
1683743821815001600,2.121001708984375,-1.3376163852274416,-0.9947229852557181,-1.5773562847167253
1683743821825075500,2.131075439453125,-0.5093465294539928,-3.475731114466488,-4.481660261130333
1683743821835149600,2.141149658203125,1.4011013076663017,-6.048499243485927,-6.154551972541213
1683743821845224400,2.151224365234375,2.217452762109041,-6.447302162206173,-6.3744865168422455
1683743821855298600,2.161298583984375,-0.02411971125602722,-4.580782021878659,-4.429871621704101
1683743821865372400,2.171372314453125,-1.1170937388401478,-2.7930837815925478,-2.2002923684716222
1683743821875446500,2.181446533203125,-1.2871592866659163,-1.484981075619161,-0.225568750795722
1683743821885520400,2.191520263671875,-2.41965875749588,-0.24705197606831789,2.4749942757487298
1683743821895594200,2.20159423828125,-3.3864860200881957,0.6359940105095505,3.255892139494419
1683743821905669400,2.21166943359375,-3.1669115412712094,0.6441977752313017,1.8218448400378227
1683743821915743200,2.2217431640625,-3.483686165124178,1.0045724713578819,2.554038001847267
1683743821925817600,2.231817626953125,-4.122044858938455,1.9049059850841759,3.0624989806383844
1683743821935891500,2.241891357421875,-5.755224737685919,2.774770126266777,3.645659518843889
1683743821945965600,2.251965576171875,-3.381781787919998,4.876735976020991,4.47907316724658
1683743821956039400,2.262039306640625,0.34233342800140376,5.444119391641021,5.49887798678875
1683743821966113500,2.272113525390625,2.079624838608503,4.872749536733329,5.2769660049349065
1683743821976188400,2.2821884765625,2.387095919804275,4.31084952096045,3.7129198681682345
1683743821986262500,2.292262451171875,1.8966775243125855,4.404388220879436,2.8149948768883943
1683743821996336400,2.30233642578125,1.0907456109449267,4.451851982843876,2.431432781919837
1683743822006410200,2.31241015625,0.4786135375380516,3.761467333716154,2.2310575090914964
1683743822016484600,2.322484619140625,0.6655787091732025,2.4875156114086505,2.206365550905466
1683743822026558500,2.332558349609375,1.4307060262046754,1.624914739227295,2.2410382203578947
1683743822036633600,2.342633544921875,2.024108118569851,0.5663070185601711,1.6955974642157554
1683743822046707500,2.35270751953125,1.9117815699420868,-1.0847402330502867,1.1089841552078723
1683743822056781600,2.362781494140625,1.5041512016437948,-2.044554109749198,0.027281390157341955
1683743822066855400,2.37285546875,0.8875355530820787,-2.7508994213357565,-0.5631324801772832
1683743822076929500,2.382929443359375,-0.11560703160315751,-3.3195994725123046,-0.8786199868291616
1683743822087003400,2.39300341796875,-1.1042857682585716,-2.746590618225932,0.03045826662778854
1683743822097078500,2.40307861328125,-2.3889107141412795,-1.4084206907689572,1.6511878291249273
1683743822107152400,2.41315234375,-3.3185029094472527,-0.2668985400497913,2.3624574453711507
1683743822117226500,2.4232265625,-3.5650869757428763,0.372932272143662,1.9639187305450438
1683743822127300600,2.433300537109375,-2.295613860154152,0.10728139406740665,0.961343278223276
1683743822137374700,2.443374755859375,-1.718749353352934,-0.47666970999389885,0.4741933830082416
1683743822147448600,2.453448486328125,-0.6747652013219892,-0.7402303377926349,-0.0029267011016607283
1683743822157523700,2.463523681640625,-0.13715426202267408,-0.6688233901828528,-0.3734270699232817
1683743822167597600,2.47359765625,0.7486836933612823,-0.4003475178137421,-1.4266145191073416
1683743822177671400,2.48367138671875,0.7064151619523763,-0.3552148291453719,-2.128096316310763
1683743822187745500,2.49374560546875,1.0243629212379455,-0.05650748464167118,-2.314140865969658
1683743822197819400,2.5038193359375,1.1808195573627949,0.6254340380504727,-2.2829694826364517
1683743822207893500,2.5138935546875,1.1698059959173202,1.5695029408678411,-2.248965506225824
1683743822217968400,2.523968505859375,1.4586778828442095,2.500157943099737,-2.2068390136361122
1683743822228042500,2.53404248046875,1.7026137727186084,3.042246173943579,-2.0517776312619445
1683743822238116600,2.54411669921875,1.1690604382470249,3.1684444499269127,-2.1191443635702134
1683743822248190700,2.554190673828125,0.5280781179308891,2.022147632151842,-2.487388477897644
1683743822258264600,2.5642646484375,1.1398708763808012,1.9394933143407105,-2.9486797092348334
1683743822268338400,2.57433837890625,-0.3404208723783493,0.8260758528605103,-3.323681481128931
1683743822278413600,2.58441357421875,-0.07603226932287216,0.4063379904001951,-2.8607518349349497
1683743822288487400,2.5944873046875,0.2513257078647613,0.507719805034995,-2.4531255582898854
1683743822298561500,2.6045615234375,-1.4530097740799188,-0.9488520454406738,-4.219575843364
1683743822308635400,2.614635498046875,-4.873751991774141,-5.669291252073645,-4.177684913095832
1683743822318709500,2.62470947265625,0.5345081509783863,-5.2319695098668335,-3.379021675556898
1683743822328783600,2.63478369140625,4.45116429284066,-2.989711392325163,-4.768442482301593
1683743822338858500,2.6448583984375,5.265804559451341,-1.8101929806888102,-3.8393729956954714
1683743822348932600,2.6549326171875,5.045983412396907,0.965966846370697,0.6332604938924312
1683743822359006700,2.6650068359375,2.665155320815742,2.3851503386944533,3.6298715826034544
1683743822369080600,2.67508056640625,-0.7138388822123408,2.017254599413276,3.2515701846420764
1683743822379154400,2.685154541015625,-2.710276319046318,1.1437059244990349,1.6897575060158967
1683743822389228500,2.695228515625,-2.6222005607083436,0.7411468681156634,0.774001674491167
1683743822399303400,2.705303466796875,-0.9085250034883617,0.8338324583366513,1.1633511206895113
1683743822409377500,2.71537744140625,1.2678937374427914,0.9431269457921385,2.6016636763751504
1683743822419451400,2.725451416015625,2.8253037971958515,0.768484956896305,4.0702556349903345
1683743822429525500,2.735525390625,3.2067130980446934,0.5109890359640121,5.014284790319204
1683743822439599600,2.745599609375,2.5146669454455375,0.369105115070939,5.602583275935054
1683743822449673700,2.755673828125,1.6234427669785916,0.3672890055596828,5.871744500219822
1683743822459748600,2.76574853515625,1.0625156878910957,0.25188392626941203,5.1574488141506905
1683743822469822700,2.77582275390625,0.5648091812178492,0.0036240357160568235,4.046069872760772
1683743822479896600,2.785896484375,0.4918257780715823,-0.24302462024837732,3.6642595898956056
1683743822489970400,2.795970458984375,0.2273354682072997,-0.5210059875875711,3.3877632004171607
1683743822500044500,2.80604443359375,0.7553378905534743,-0.9019400721400975,3.2082384079158306
1683743822510118400,2.816118408203125,1.092973808388412,-1.0487366072550415,2.884481670090556
1683743822520193500,2.826193603515625,1.124171787467599,-0.9268722688227892,2.7179893776416777
1683743822530267400,2.836267333984375,0.5750006126254796,-0.5349520953536033,2.622539875665307
1683743822540341500,2.846341552734375,0.043130701196193694,-0.10822715048491954,2.5732091507852077
1683743822550415600,2.85641552734375,0.2495683428034186,0.10048895744830369,2.51798176908195
1683743822560489500,2.866489501953125,-0.12796966957002878,0.29197745172679423,2.488331896227598
1683743822570563600,2.8765634765625,0.2924830631613731,0.16888064889013765,1.6438801364600657
1683743822580638700,2.886638671875,2.0957237404942513,-0.6290490136772394,-1.1117056891262531
1683743822590712600,2.896712646484375,1.2771005417272447,-0.970711410549283,-2.922249967470765
1683743822600786400,2.906786376953125,-0.7306909405529498,-1.1277835482239722,-4.460897459086776
1683743822610860500,2.916860595703125,-0.40255438020825385,-1.9268693950891493,-6.926246539133786
1683743822620934400,2.926934326171875,0.5008883515797555,-2.44554547842443,-8.526133220088482
1683743822631008500,2.937008544921875,1.3357941382363439,-2.4979420206159353,-8.278159745261073
1683743822641082600,2.94708251953125,1.926905343185365,-2.1363708081811663,-5.430009617745876
1683743822651157500,2.957157470703125,2.038977478660643,-1.8215788825780153,-2.280879816880822
1683743822661231600,2.967231689453125,2.3631275997176764,-1.5936714597016572,-1.508364581555128
1683743822671305500,2.977305419921875,2.443501113115251,-1.168700665023923,-1.60603117505908
1683743822681379600,2.987379638671875,1.8617066025659441,-0.45950843957364557,-1.4834282932192087
1683743822691453400,2.997453369140625,1.2557877045854926,0.20989654988944528,-1.063138934355974
1683743822701527600,3.007527587890625,1.2041324822805821,0.7226812370985746,-0.7373539055734872
1683743822711602400,3.0176025390625,1.070446334759891,0.7287386374413967,-0.6335118383049965
1683743822721676500,3.027676513671875,1.804645721825212,0.767582455098629,-0.5556354024201631
1683743822731750400,3.03775048828125,1.5713864165268838,0.6281278071790933,-0.2369622514694929
1683743822741824500,3.047824462890625,0.7813187195062636,0.13495616745650768,0.27562077568769455
1683743822751898600,3.057898681640625,0.7352084179773927,-0.20273907935023305,0.5411591333001852
1683743822761972500,3.067972412109375,-0.22651991404071448,-0.15503157175779342,0.729139034935832
1683743822772047600,3.078047607421875,-1.087496253760159,0.17209376571774482,1.0770862111657857
1683743822782121500,3.08812158203125,-1.306242757320404,0.2510889764994383,1.5869523805797099
1683743822792195600,3.098195556640625,-1.5339986428968608,0.30059447342455387,1.9805197367340326
1683743822802269400,3.10826953125,-2.0418940967597066,0.6983084278643131,1.9433575885534284
1683743822812343600,3.118343505859375,-2.5661995642840862,1.3125778055608273,1.7308593317329883
1683743822822417400,3.12841748046875,-2.258754055920988,1.7656418913006782,1.3038380342662335
1683743822832491500,3.138491455078125,-0.6107412035703659,1.903449356535077,0.758395524558425
1683743822842566400,3.14856640625,0.9055015640139579,1.8631459877192973,0.1801455547481775
1683743822852640500,3.158640625,0.9254241158410906,1.1368284399449824,-0.32741759842038154
1683743822862714600,3.168714599609375,-0.4114301989726722,0.1022813938230276,-0.35536592805385586
1683743822872788500,3.17878857421875,-1.3957482562005519,-0.410970910897851,-0.46093876463770866
1683743822882862600,3.188862548828125,-1.0551720471300183,-0.5081172799199819,-0.6630716947883367
1683743822892936400,3.1989365234375,-0.23874343579784035,-0.5510317080169915,-1.0500205095857382
1683743822903011600,3.209011474609375,0.17926672608703373,-0.35902211247384547,-1.2006477089047431
1683743822913085400,3.21908544921875,0.36246173153370614,-0.47996378310322757,-1.2234183436393737
1683743822923159600,3.22915966796875,0.1376034670948982,-0.9059738577008247,-1.3025520861089228
1683743822933233400,3.2392333984375,-0.288078106200695,-1.1932616903066635,-1.6177151831120251
1683743822943307500,3.2493076171875,-0.901172887159884,-1.5831261002898216,-1.6139789191931486
1683743822953381600,3.259381591796875,-1.4577648596525192,-1.491566591489315,-0.9759329445898532
1683743822963456500,3.26945654296875,-1.7100412923708557,-1.1663929726034403,-0.17639409326016903
1683743822973530600,3.279530517578125,-1.903947661446035,-1.720564732211828,0.08178221115171909
1683743822983604500,3.2896044921875,-1.5147811705991625,-1.7776240055173635,0.4142728750526905
1683743822993678600,3.2996787109375,-0.6404895683631301,-2.0458324591219426,0.4967202721148729
1683743823003752400,3.30975244140625,-0.41183804912120103,-2.216364966872334,0.4987269357621669
1683743823013826600,3.31982666015625,-0.11019055951237677,-1.728209694007039,0.48302901589274405
1683743823023901400,3.3299013671875,-0.050609951035678384,-1.3459510828524828,0.42433191225230693
1683743823033975600,3.3399755859375,-0.43685295565128324,-1.323253513354063,0.22073066311478615
1683743823044049400,3.35004931640625,-0.9603390696167945,-1.5479226849615573,-0.054396191576123236
1683743823054123500,3.36012353515625,-1.4391475452050566,-1.6702923425674439,-0.10419745657742023
1683743823064197600,3.37019775390625,-1.792166325610876,-1.5867770240128038,0.022296002960205077
1683743823074271500,3.380271484375,-1.7219024105563758,-1.339758657953143,0.3691454470813274
1683743823084345600,3.390345703125,-1.501116363992542,-1.1512672996640205,0.743139503237605
1683743823094420500,3.40042041015625,-1.0886075760029257,-1.2278496040850877,0.8729355114519596
1683743823104494600,3.41049462890625,-0.6267291924275458,-1.5156839646577833,0.8120248234152794
1683743823114568000,3.42056787109375,-0.2458006608329713,-1.770427956533432,0.5576408970236778
1683743823124642000,3.43064208984375,-0.2381787876524031,-1.7565385473906994,0.41112522467672824
1683743823134716200,3.440716064453125,-0.20502339089512825,-1.5012451049387454,0.27328911786973475
1683743823144790000,3.4507900390625,0.11777049324735998,-1.2681155634999275,0.075372344109416
1683743823154865200,3.460865234375,-0.1730009436905384,-1.417912157213688,-0.005025719207525253
1683743823164939000,3.47093896484375,-0.8828688764452933,-1.4678560455560683,0.15255202990174294
1683743823175013000,3.48101318359375,-1.3913175802767277,-1.0393974087625741,0.25373919874727724
1683743823185087000,3.4910869140625,-1.8377087641239165,-0.547315902364254,0.5632213275045156
1683743823195161000,3.5011611328125,-2.0623604000747204,-0.7703770542532206,0.7948138686344027
1683743823205235000,3.51123486328125,-2.316158635532856,-0.9158318193703889,0.7146101588457823
1683743823215309000,3.52130908203125,-1.9104642037332056,-0.29741818147599697,0.35985564068853854
1683743823225384000,3.531384033203125,-0.5760147215714678,0.5169716175049544,-0.6893380626842379
1683743823235458000,3.5414580078125,1.0650836386829614,0.8981821809113025,-1.8156106218233703
1683743823245532200,3.5515322265625,2.464095865115523,1.593145974522829,-2.6316473112285137
1683743823255606000,3.56160595703125,3.943335474473238,3.490422779902816,-3.3714538706511257
1683743823265680100,3.57168017578125,3.2997470633119343,5.483849344483017,-3.486676871372759
1683743823275754000,3.58175390625,2.1461562891364094,7.022402143552899,-2.5678607754945753
1683743823285829000,3.5918291015625,1.1302193240035325,8.083088424059747,-1.7814871106863022
1683743823295903000,3.601903076171875,-0.06655364409340545,7.4429463539600365,-0.6241521815463901
1683743823305977000,3.61197705078125,-1.5724205818802117,3.9926843195319175,0.9272893251910805
1683743823316051000,3.622051025390625,-1.7153209863394498,0.5571136582791805,1.0861743575066327
1683743823326125000,3.632125,-0.8501561088889836,-1.1088216581225394,1.4163414007656276
1683743823336199200,3.64219921875,0.11525372465346008,-1.7573177150696515,1.7217622714333236
1683743823346274000,3.652274169921875,1.0680080016970634,-1.6579133379876612,1.909902185936272
1683743823356348200,3.66234814453125,2.0318506955206392,-1.4672329452216624,1.8567846359938383
1683743823366422000,3.672422119140625,2.6629361834615466,-1.8784014245182274,1.0724915768519043
1683743823376496000,3.68249609375,2.868731727772951,-2.1030115594148633,0.13592939640283583
1683743823386570000,3.692570068359375,2.7091642661511894,-1.9345009128808974,-0.6938079015746712
1683743823396644000,3.70264404296875,2.296838433513045,-1.8297142582386732,-1.5568712767012416
1683743823406718000,3.712718017578125,1.6678993099510668,-1.6840823829889298,-2.3938255203202363
1683743823416793000,3.72279296875,1.0977029558021574,-1.5105623838603495,-3.108251262509823
1683743823426867000,3.732866943359375,0.6091553956836462,-1.1249363420993088,-3.657553370255232
1683743823436941000,3.742941162109375,0.0031587562918663024,-0.3992290351778269,-3.831992237794399
1683743823447015200,3.75301513671875,-0.6622562136869877,-0.34230537095069885,-2.8569650098726154
1683743823457089000,3.763089111328125,-0.769799473560974,-0.703627577060461,-1.9678538780368864
1683743823467163100,3.7731630859375,-0.3685194241374731,-0.7112012271851301,-1.369154848307371
1683743823477238000,3.783238037109375,0.16532675580084322,-0.34920214472711086,-0.8873375462919473
1683743823487312100,3.79331201171875,0.5718629721868783,-0.1802764876514673,-0.8519925305359065
1683743823497386000,3.803385986328125,0.7486410232633351,-0.14106442120373247,-1.1186566773079336
1683743823507460000,3.813460205078125,0.7545924790136516,-0.11983867782354354,-1.5981149951070546
1683743823517534000,3.823533935546875,0.5986199731439351,-0.2485299396663904,-2.163752589973062
1683743823527607800,3.83360791015625,0.327470789912343,-0.20799568470418453,-2.7208745776891705
1683743823537683000,3.843682861328125,-0.23688991688564418,-0.06858253783881664,-3.0687548261627553
1683743823547757000,3.853757080078125,-0.7625259023614227,0.3319932357728481,-3.1634818590834737
1683743823557831200,3.8638310546875,-0.34364275703430175,1.073887122863531,-3.1168080784529444
1683743823567905000,3.873905029296875,0.3692857323348522,2.062652076497674,-3.2177257827073333
1683743823577979100,3.883979248046875,0.46832485630102455,3.084319182780385,-3.5092446770116683
1683743823588053000,3.894052978515625,0.9050199179768562,3.5354648676782845,-3.4721307518869637
1683743823598127000,3.904127197265625,1.0865766546972095,3.708245446616411,-2.9166835655152794
1683743823608202000,3.914201904296875,3.5374160017460583,3.1170582538217304,-1.325687462502718
1683743823618276000,3.924276123046875,8.412605040585994,2.3303613484084607,-0.21886837637424467
1683743823628350000,3.934349853515625,9.080483258873224,1.1451461864352226,-0.5767354735940694
1683743823638423800,3.944423828125,7.100493683493137,0.20762217521667478,-0.9599930326581001
1683743823648498200,3.954498291015625,4.271949004679918,-0.39389527293443677,-1.1414809419259428
1683743823658572000,3.964572021484375,1.2783967190176249,-0.454582089087367,-0.9840487387672067
1683743823668647200,3.974647216796875,-0.7505833895027637,-0.6587731208115816,-0.5074187762618064
1683743823678721000,3.984720947265625,-2.367962472528219,-0.812894591987133,-0.10737725565731525
1683743823688795100,3.994795166015625,-3.1092332592844962,-1.1922054592519997,0.0976975731641054
1683743823698869000,4.004868896484375,-3.1371406723856925,-1.667087993568182,0.06991992392241954
1683743823708943000,4.014943115234375,-3.0707635356366634,-2.054572814938426,-0.26580373055040835
1683743823719017000,4.025016845703125,-3.140457249587774,-2.2946780406087637,-1.1312702212959527
1683743823729090800,4.0350908203125,-3.344568786334991,-1.9665303743481635,-2.2679846794724465
1683743823739166000,4.045166015625,-3.3892683442831038,-1.095263672891259,-3.19744111956954
1683743823749239800,4.05523974609375,-3.001926730775833,0.03494564117491245,-3.542940318125486
1683743823759314200,4.065314208984375,-2.330951715517044,1.267235858055949,-3.0747137345671653
1683743823769388000,4.075387939453125,-1.5414999584376812,2.295945284065604,-2.313105093181133
1683743823779462100,4.085462158203125,-0.7718015340983867,3.1389398307621477,-1.370848208221793
1683743823789536000,4.095535888671875,-0.44586862127780913,3.7300183024853464,-0.21130466312170026
1683743823799611100,4.105611083984375,-0.447898117811419,3.6480227408438917,0.4755290155261755
1683743823809685000,4.11568505859375,-0.36673129861168563,2.9411154114603995,0.6638046852380037
1683743823819759000,4.125759033203125,-0.2311457106778398,2.1546347791463134,0.6778460700720548
1683743823829833000,4.1358330078125,-0.14461188455224036,1.4703209743648766,0.5425660774886608
1683743823839906800,4.14590673828125,-0.17622633547782898,0.8855454021781682,0.49056116496324537
1683743823849981200,4.155981201171875,-0.33340193352699277,0.6212246036618948,0.6104600485414267
1683743823860055000,4.166054931640625,-0.5596843855500221,0.4684568851828575,0.6566507218301296
1683743823870130200,4.176130126953125,-0.7097054356694221,0.25992636294960975,0.6109878718078136
1683743823880204000,4.1862041015625,-0.9765724115371703,0.3585620937466621,0.9431786759793758
1683743823890278100,4.196278076171875,-1.268884794306755,0.45129123084843153,1.3018828085452316
1683743823900352000,4.20635205078125,-1.4022890561461447,0.3242068196803331,1.5465233395576476
1683743823910426000,4.216426025390625,-1.2473872482478618,0.32436639415621754,1.740602727112174
1683743823920500000,4.2265,-1.1257939818419516,0.38746728571355343,1.9519377853721378
1683743823930575000,4.2365751953125,-1.1061937207717447,0.2939905451148748,2.2933453307002782
1683743823940649000,4.24664892578125,-1.0488380948681384,0.1642208403855562,2.555868139883876
1683743823950722800,4.256722900390625,-1.105730779435113,0.1612064610004425,2.818199225887656
1683743823960797200,4.266797119140625,-1.017791726154089,0.08855039011240005,2.7569384092390536
1683743823970871000,4.27687109375,-1.0477744111593812,-0.1498205591112375,2.5910516814678908
1683743823980945200,4.286945068359375,-1.289416710203886,-0.19377718973755836,2.66112124299407
1683743823991019000,4.29701904296875,-1.35990654296875,-0.32985271661281584,2.6923908260047433
1683743824001094100,4.30709423828125,-1.1377649901427327,-0.48125849908888335,2.6447470312982797
1683743824011168000,4.31716796875,-0.7181519231058656,-0.5337701920926571,2.7557038990080356
1683743824021242000,4.3272421875,-0.40260231100320815,-0.627054040467739,3.0944688208729025
1683743824031316000,4.33731591796875,-0.02864259550794959,-0.7960814043521881,3.3088550833970305
1683743824041389800,4.347389892578125,0.440523753118515,-1.0689607723772525,3.2994600630640982
1683743824051464200,4.357464111328125,0.9332546633362769,-1.3422685949474573,3.0850936742842197
1683743824061538800,4.367538818359375,1.5382044240236281,-1.5724205818802117,2.299509114027023
1683743824071613200,4.37761328125,2.3258207823693753,-1.6939724933624267,1.0364046566873788
1683743824081687000,4.38768701171875,3.1049089663445946,-1.67291041611135,-0.18396014460027216
1683743824091761200,4.39776123046875,3.396224154770374,-1.2910790904581546,-0.9787380651384592
1683743824101835000,4.4078349609375,3.246225316482782,-1.2344909417957066,-2.282486083033681
1683743824111909000,4.4179091796875,2.7062662066221237,-1.8021838617563246,-3.838545897221565
1683743824121983000,4.42798291015625,1.772411823827028,-2.3182541465073823,-4.593759284612537
1683743824132058000,4.43805810546875,0.7630057948328555,-2.2257862906903028,-4.398806621354818
1683743824142132000,4.448132080078125,0.0066072893105447285,-1.6629425643265245,-3.7695828356325625
1683743824152206000,4.4582060546875,-0.5330571484524756,-1.1438158146142958,-3.190150962561369
1683743824162280200,4.4682802734375,-1.6322750388622282,-0.8455278645664454,-2.485295889532566
1683743824172354300,4.478354248046875,-3.3628362644314764,-0.6668576430678367,-1.5829104117125272
1683743824182428200,4.48842822265625,-5.239988565671443,-0.33529403088390825,-0.42626434161961074
1683743824192502300,4.498502197265625,-6.045801090443134,0.5260965887248515,0.8650029648870229
1683743824202577200,4.5085771484375,-4.917351187264919,1.841948885911703,1.6427508401691913
1683743824212651300,4.5186513671875,-2.1755822901070117,3.2728368445545435,1.485566474291682
1683743824222725000,4.52872509765625,0.5662964971661567,3.8567309577316045,1.010678679278493
1683743824232799000,4.538799072265625,2.8536931485950947,3.430070310270786,0.5293319173842668
1683743824242873000,4.548873046875,3.342098596829176,2.2482769394397732,0.30024083768129345
1683743824252947200,4.558947265625,1.4076631503999233,1.1559335379093885,0.3374059084713459
1683743824263022000,4.56902197265625,-0.9537164366066455,0.3596785305559635,0.3863128549814224
1683743824273096200,4.57909619140625,-1.615482894015312,0.026262568503618237,0.5182996512383222
1683743824283170300,4.58917041015625,-0.9030068245887756,0.4372784875869751,0.5243880312412977
1683743824293244200,4.599244140625,-0.16244564740657805,0.9007558307915925,0.49329146670997137
1683743824303318300,4.609318359375,0.2096750526258722,1.3159826455682515,0.9771522572517395
1683743824313392000,4.61939208984375,0.17965627339389173,1.6975848386406898,1.407782977387309
1683743824323466000,4.629466064453125,-0.057332281560637056,1.8777052589476106,1.7668699717909098
1683743824333541000,4.639541015625,-1.5984803212881087,1.5492694233953952,1.816084961336851
1683743824343615000,4.649614990234375,-0.4112707706272602,2.1597575289875266,2.647251707595587
1683743824353689000,4.659689208984375,-0.549809472745657,1.8427081798464058,3.1329800455749033
1683743824363763200,4.66976318359375,-0.29791093342900277,1.7739818496227264,3.423538862675428
1683743824373837300,4.67983740234375,0.017591779925161973,1.9023668219953773,3.4762212360709905
1683743824383911200,4.6899111328125,-0.5648842922806739,1.7279606876820326,2.7926515276551247
1683743824393985300,4.6999853515625,-1.3286755384027957,1.6589152085065841,1.8203174843400716
1683743824404060200,4.71006005859375,-1.9498381827443838,1.3833470397889613,0.8830173450052737
1683743824414134300,4.72013427734375,-1.737625757128,0.8181775008261203,0.1431032335549593
1683743824424208100,4.7302080078125,-0.8875275159060955,0.2658499077796936,-0.34025603720545766
1683743824434282000,4.740281982421875,-0.166778123652935,-0.27686522279083725,-0.7565513579964638
1683743824444356000,4.750356201171875,-0.09520809443593024,-0.7395499543130397,-1.1183329983115196
1683743824454430200,4.76043017578125,-0.4581213691294193,-0.8205483216106891,-1.306098964935541
1683743824464505000,4.770505126953125,-1.1467582978069781,-1.0912474229872227,-1.6381103208869694
1683743824474579200,4.7805791015625,-1.6711708789676427,-1.059129698714614,-1.5336983447760342
1683743824484653300,4.7906533203125,-1.5946932039648294,-0.9703846628129482,-1.2074468675255774
1683743824494727200,4.80072705078125,-0.9369283834129571,-0.703215489128232,-0.8314426405906676
1683743824504801300,4.81080126953125,-0.44887299072556197,-0.3999117567449808,-0.7211731706231832
1683743824514875100,4.820875244140625,-0.5269534978151321,-0.33349487250745297,-0.7282657592326403
1683743824524949000,4.830948974609375,-0.6023614246945828,-0.2472580200344324,-0.35964579733014107
1683743824535024000,4.841024169921875,-0.9180067522566765,-0.15313830535709858,0.05175006098151207
1683743824545098000,4.851097900390625,-0.8908638937871902,-0.28954350257813927,0.3534925353974104
1683743824555172000,4.861172119140625,-0.8035948487222194,-0.25879706665873525,0.5662134950578213
1683743824565246200,4.87124609375,-0.654014528107643,-0.21851824776232243,0.6024614510029555
1683743824575320300,4.8813203125,-0.920097075599432,-0.24603227763175964,0.44194121870100495
1683743824585394200,4.891394287109375,-0.8007704389512539,0.05874795704483986,0.5349965190172196
1683743824595468000,4.901468017578125,-0.6965116075754165,0.2809767497628927,0.6209188987135886
1683743824605543200,4.911543212890625,-0.5073509717226028,0.3904220438659191,0.6727917092919349
1683743824615617300,4.9216171875,-0.26761516388654705,0.3178156573385,0.6582523118078708
1683743824625691100,4.931691162109375,-0.055306219093129036,0.20779753178358076,0.663050652000308
1683743824635765000,4.941764892578125,0.12084171738624572,0.1687216589361429,0.6823761147171259
1683743824645839000,4.951839111328125,0.09779109666645526,0.04583820658922195,0.6342857452869415
1683743824655913200,4.961913330078125,-0.019118615033105014,-0.003713467565178871,0.625390491169691
1683743824665987300,4.9719873046875,-0.23858188856057821,-0.04673895482122898,0.531235705178976
1683743824676062200,4.982062255859375,-0.44186223518066103,-0.13320201726555825,0.3989180695325136
1683743824686136300,4.99213623046875,-0.6140330847226083,-0.24321312855780122,0.32263562484085556
1683743824696210200,5.002210205078125,-0.6687661070376634,-0.24128537536561487,0.3588391571223736
1683743824706284000,5.012283935546875,-0.5500882166218012,-0.20939795271754263,0.3176625126034021
1683743824716358100,5.022358154296875,-0.3879857566297054,-0.22182371904850004,0.19797873308062552
1683743824726432000,5.032431884765625,-0.2424811610214412,-0.2658575065642595,0.02769464713335037
1683743824736507100,5.042507080078125,-0.053116015572473405,-0.3415881625920534,-0.06155541568100452
1683743824746581000,5.0525810546875,0.0037255963943898674,-0.41873979133367534,-0.21002631374895572
1683743824756655000,5.062655029296875,0.0321167013593018,-0.513674914047122,-0.3054530193716287
1683743824766729200,5.072729248046875,0.09846271231770515,-0.5668196442574263,-0.39676176828145976
1683743824776803300,5.08280322265625,0.25901786980256436,-0.6581780775278806,-0.4931032506614923
1683743824786877200,5.092877197265625,0.4720604626327753,-0.7742980270892381,-0.5058405671596526
1683743824796951000,5.102950927734375,0.6703976537622511,-0.8660404912412166,-0.5473837069034576
1683743824807026200,5.113026123046875,0.7615675787232816,-0.8984048837512731,-0.5928168398231267
1683743824817100000,5.12310009765625,0.7939736184179782,-0.8071388049393892,-0.7054255663931369
1683743824827174100,5.133174072265625,0.6323463016569614,-0.6776601921111345,-0.8895996460050344
1683743824837248000,5.143248046875,0.5121173093415796,-0.46748950145542617,-0.983544588637352
1683743824847322000,5.153322021484375,0.4995179400093853,-0.1650672280818224,-1.0048714543044566
1683743824857396200,5.163396240234375,0.5374750379599631,0.10270224958360194,-1.0081167198359966
1683743824867470300,5.17347021484375,0.5764063877701759,0.3019996640473604,-1.0268097298681735
1683743824877545200,5.183545166015625,0.6783822227753699,0.34003508793115617,-1.02690968311131
1683743824887619300,5.193619384765625,0.91803502850309,0.21641221539378164,-0.9933832610845565
1683743824897693200,5.203693115234375,1.1106208164989948,-0.02923661587834358,-0.9672902039289474
1683743824907767000,5.21376708984375,1.336199650297314,-0.3471650859415531,-0.9464324170783162
1683743824917841200,5.223841064453125,1.3954888746120035,-0.6377455303519964,-1.1067980433404445
1683743824927915000,5.2339150390625,1.3657418249934912,-0.7777513824135065,-1.362843765464425
1683743824937989000,5.243989013671875,1.3188335049547255,-0.8338070316344499,-1.6110431580021976
1683743824948064000,5.25406396484375,1.1031389363110065,-0.7589034740805626,-2.0234277350902556
1683743824958138000,5.26413818359375,0.7716577417135239,-0.5859083756089211,-2.505148590993881
1683743824968212200,5.274212158203125,0.4072219336278736,-0.44901568713188167,-2.9034675255894657
1683743824978286300,5.284286376953125,0.10111541878357529,-0.37625381778180594,-3.3148195447593927
1683743824988360200,5.294360107421875,0.06481997043490409,-0.3223170604109764,-3.7667397211611267
1683743824998434000,5.30443408203125,0.4244156450130045,-0.34234745652675624,-4.083072446465492
1683743825008508200,5.314508056640625,1.2363988212436436,-0.4001338750630617,-4.213268267652392
1683743825018583000,5.3245830078125,2.3211048597633837,-0.4747942715108394,-4.112710044360161
1683743825028657200,5.3346572265625,3.676996906393766,-0.5282102198779582,-3.6690421479970214
1683743825038731000,5.34473095703125,4.701370349025726,-0.5641571470499038,-3.1394688230723142
1683743825048805000,5.35480517578125,4.398383427506685,-0.3513309734493494,-2.2809090429753063
1683743825058879200,5.364879150390625,3.1497365345865487,0.045752281871438025,-1.3187462650626898
1683743825068953300,5.374953369140625,1.6994459563374518,0.5322364066541194,-0.5114543153882026
1683743825079027200,5.385027099609375,0.5013269621927291,1.011609238126874,0.2272293774843216
1683743825089102300,5.395102294921875,-0.2563689261963591,1.477489550819993,0.8075321881711482
1683743825099176200,5.40517626953125,-0.8303215276062488,1.8949042310297488,1.4360188917905092
1683743825109250000,5.41525,-1.305569388103485,2.3179478570371863,1.8919792834937572
1683743825119325000,5.425324951171875,-1.8075474346160887,2.676476048514247,2.108044292885065
1683743825129398800,5.435398681640625,-2.275050380074978,2.8942046072036027,2.1936112832725048
1683743825139472600,5.44547265625,-2.502394323849678,2.9851369240164756,1.763034923672676
1683743825149547800,5.4555478515625,-2.5605402233481405,3.030217005714774,0.9079735070854424
1683743825159621600,5.46562158203125,-2.3617326382279393,3.0248224531948567,0.26322072831988336
1683743825169695700,5.47569580078125,-1.944140994016081,2.5658780772447582,0.3105062111079693
1683743825179769900,5.485769775390625,-1.643726991724968,1.7744938907980918,0.3940595235854387
1683743825189844000,5.495843994140625,-1.350878017860651,1.006237481960654,0.19802841744124888
1683743825199917800,5.505917724609375,-1.0346808285694569,0.3360334510743618,-0.059467503491044044
1683743825209992000,5.515991943359375,-0.8288789275825024,-0.14368950901031494,-0.17403262482583523
1683743825220066800,5.52606689453125,-0.7416577402472495,-0.406442619818449,-0.09488485383093356
1683743825230141000,5.536140869140625,-0.6428197648763656,-0.5691372735500335,0.03470014198124408
1683743825240214800,5.54621484375,-0.6004664777934551,-0.7139315289318561,0.11709960824847221
1683743825250288600,5.55628857421875,-0.7050889548499136,-0.815869223883748,0.23627310016155242
1683743825260362800,5.56636279296875,-0.8708392698250711,-0.8304150511085987,0.39483576865494246
1683743825270436900,5.576436767578125,-1.1109599122602491,-0.82101301651299,0.3982821097165346
1683743825280511000,5.586510986328125,-1.4075873086847364,-0.8850508966594934,0.46587622103989124
1683743825290585900,5.5965859375,-1.6972434778571128,-0.9685901806116104,0.44788989797234535
1683743825300660000,5.606659912109375,-1.7521207309484481,-1.0353688838988542,0.49438160003423687
1683743825310733800,5.61673388671875,-1.666579605654627,-0.9835264684587717,0.6246101544469594
1683743825320808000,5.626807861328125,-1.6551624318443239,-0.7890110275745391,0.8886129730552434
1683743825330881800,5.6368818359375,-1.7472900959216058,-0.48263329457342624,1.1567074448913335
1683743825340955600,5.64695556640625,-1.785847643983364,-0.0786310536444187,1.262808689263463
1683743825351029800,5.65702978515625,-1.721726761728525,0.35572423997223374,1.3072341064453123
1683743825361104600,5.667104736328125,-1.5439771622061729,0.6849117706745863,1.352563778990507
1683743825371178800,5.6771787109375,-1.5747580849170684,0.9275725260466336,1.4857523522526024
1683743825381252900,5.6872529296875,-1.6050900948166846,0.9676432551503181,1.5447352870970963
1683743825391327000,5.697326904296875,-1.6458125658273697,0.9250351165235042,1.5425193646132944
1683743825401400800,5.70740087890625,-1.4796496514633297,0.7952858700603246,1.3637059352517127
1683743825411475000,5.717474853515625,-1.2932697323702276,0.6659031188219785,1.1916980942517519
1683743825421548800,5.727548828125,-1.0774877777040004,0.5265969394624233,1.053349946269393
1683743825431624000,5.7376240234375,-0.8180278632223605,0.3521107256501913,0.8946399782598018
1683743825441697800,5.74769775390625,-0.6118985569119453,0.14730828402936458,0.7196592589288949
1683743825451771600,5.757771728515625,-0.4288672175943851,0.01205459493100643,0.5136351665586233
1683743825461845800,5.767845703125,-0.13426687001809476,-0.11976093641221523,0.2132949601560831
1683743825471919900,5.777919921875,0.26247619356289503,-0.3393786698490381,-0.16659399925768376
1683743825481994000,5.787993896484375,0.6469581798553466,-0.6120727444350719,-0.5956354043751955
1683743825492067800,5.79806787109375,0.7560556834340095,-0.8309989884763955,-0.8987333850532769
1683743825502143000,5.80814306640625,0.588094195215404,-0.8949725712150335,-1.1018202549278735
1683743825512216800,5.818216796875,0.4588403310537338,-0.9248913241386413,-1.2478040123552083
1683743825522291000,5.828291015625,0.3786534262694418,-0.9140981274455785,-1.2972656701385974
1683743825532364800,5.83836474609375,0.35657559610456224,-0.9766939920902251,-1.2655536040574311
1683743825542438700,5.848438720703125,0.3580500525712967,-1.0109621723949909,-1.2723217830181122
1683743825552512800,5.8585126953125,0.3100584673404693,-0.9621855742663145,-1.20218266338706
1683743825562587000,5.8685869140625,0.06320771293267607,-0.8660100961029529,-1.0114876575738192
1683743825572661800,5.878661865234375,-0.3297160846211016,-0.7831482730209827,-0.5963286473363637
1683743825582736000,5.88873583984375,-0.8520036364518105,-0.6650736822605132,-0.06753507461249827
1683743825592810000,5.89881005859375,-1.3816684390522538,-0.5612035579413175,0.4678723632931709
1683743825602883800,5.9088837890625,-1.9018144488096236,-0.6234913795500994,0.9093868810147047
1683743825612957700,5.918957763671875,-2.4388360439136623,-0.7442571090906858,1.2020961541473865
1683743825623031800,5.92903173828125,-2.6969828299701213,-0.7529267377585173,1.432626911264658
1683743825633105700,5.939105712890625,-2.5852608231067657,-0.7862509152114391,1.615705012333393
1683743825643180800,5.949180908203125,-2.3338312164761126,-0.7703197711080312,1.7723796751230954
1683743825653254700,5.959254638671875,-2.0436684129558502,-0.5419546675920486,1.9283681092143057
1683743825663328800,5.969328857421875,-1.645819580090046,-0.28322131381928917,2.0491852766811847
1683743825673403000,5.97940283203125,-1.2506442042171955,-0.05224573554396629,2.1460756251156328
1683743825683477000,5.98947705078125,-0.7477087839145213,0.11098317119479179,2.1863000834763047
1683743825693550800,5.99955078125,-0.11596687789149582,0.23221710276901722,2.321383676704764
1683743825703624700,6.009624755859375,0.0979519863165915,0.325699104064703,2.5533067649632692
1683743825713699800,6.019699951171875,-0.1214776041369885,0.511326889616251,2.812500137463212
1683743825723773700,6.029773681640625,-0.30420623418092724,1.0064742133259772,2.9981413670182224
1683743825733847800,6.039847900390625,-0.14583828454203904,1.8400392528980969,2.8919729026287793
1683743825743921700,6.049921630859375,0.5755166358562186,2.759422042748332,2.454170683428645
1683743825753995800,6.059995849609375,1.6572750400841234,3.624271862900257,1.670183621495962
1683743825764070000,6.07006982421875,2.4025778588354587,4.308475193044543,0.524876107019186
1683743825774144000,6.08014404296875,2.228680258566141,4.585736137154698,-0.7437059049487114
1683743825784217900,6.0902177734375,1.3052362106263637,4.6851545427620405,-2.0475486153900624
1683743825794293000,6.10029296875,-0.013704700225591658,4.454345553225279,-2.8651123682320114
1683743825804366800,6.110366943359375,-0.9182640149533748,3.5963036595225333,-2.8929724350601433
1683743825814440700,6.120440673828125,-1.023753849428892,1.9597113419830798,-2.459330842670798
1683743825824514800,6.130514892578125,-0.57174782137461,0.08090484379529952,-1.3835878628075122
1683743825834588700,6.140588623046875,-0.18725041831731795,-1.1924147180885076,-0.19451134923100472
1683743825844662800,6.150662841796875,-0.17631405029390007,-1.7697709539294242,0.6303840616732835
1683743825854737000,6.16073681640625,-0.3685784243157133,-1.883100395989418,1.111597552576661
1683743825864811800,6.170811767578125,-0.7073077268779278,-1.642369147375226,1.324251292219758
1683743825874886000,6.180885986328125,-1.0362228703796863,-1.2196873404175042,1.2811866419970988
1683743825884960000,6.1909599609375,-1.1781892819244413,-0.7466589095354079,0.952195510649681
1683743825895033900,6.201033935546875,-1.1867431021928787,-0.4562298562943935,0.4367109168320894
1683743825905107700,6.211107666015625,-1.1079764394700526,-0.3384031028151512,-0.09403495900332927
1683743825915181800,6.221181884765625,-1.079911205458641,-0.24676760616898535,-0.5931915183544159
1683743825925255700,6.231255615234375,-1.094738187712431,-0.18740765470564363,-1.0099217234313487
1683743825935330800,6.241330810546875,-1.2416554265975952,-0.26113632326126096,-1.3997867179363965
1683743825945404700,6.25140478515625,-1.2946867595613003,-0.5344494065284728,-1.7450158673793077
1683743825955478800,6.261478759765625,-1.3450024038255215,-0.9248679432630539,-1.9175854339152574
1683743825965553000,6.271552978515625,-1.408846222704649,-1.2704933985471725,-1.8584090223252772
1683743825975626800,6.281626708984375,-1.4090297625780104,-1.5031009619385003,-1.67781513928771
1683743825985700900,6.291700927734375,-1.410509772002697,-1.5327315455704926,-1.444454711702466
1683743825995774700,6.301774658203125,-1.3447463832378386,-1.4042460354328155,-1.1109200917065143
1683743826005849900,6.311849853515625,-1.1367559592306613,-1.1411492257535456,-0.7737181813746691
1683743826015923700,6.321923828125,-0.9384043011844158,-0.8373883972525596,-0.5190811570048331
1683743826025997800,6.331997802734375,-0.6786719995021819,-0.5796972460091113,-0.4132394403517246
1683743826036071700,6.34207177734375,-0.48969957969784733,-0.4404723151922226,-0.3564449554622173
1683743826046145800,6.352145751953125,-0.5299287142336369,-0.4189806143522262,-0.3987953199356794
1683743826056220000,6.362219970703125,-0.6898258462011814,-0.39932957294285293,-0.5437380438774824
1683743826066293800,6.372293701171875,-0.8490390875577926,-0.3457493739247322,-0.6274813259691
1683743826076369000,6.382368896484375,-0.9151157800555229,-0.3248340116679668,-0.7353425657510757
1683743826086442800,6.39244287109375,-0.9443611637622118,-0.34217326900362965,-0.8026327256917953
1683743826096516900,6.402516845703125,-1.03222474065423,-0.37131402329206464,-0.8274544477373361
1683743826106590700,6.4125908203125,-1.0899626438736916,-0.42833121102154254,-0.8380594283819198
1683743826116664300,6.422664306640625,-1.0822551382362842,-0.46383565512299535,-0.7401514273375273
1683743826126738400,6.432738525390625,-1.1964502572149038,-0.44634617566168305,-0.6486988860428333
1683743826136812500,6.4428125,-1.2570844663977623,-0.3483890747785568,-0.5668050312101841
1683743826146887400,6.452887451171875,-1.1683055282264947,-0.19186463411450386,-0.5164502239793539
1683743826156961500,6.46296142578125,-1.094472814774513,-0.08726385743319988,-0.4458680367559194
1683743826167035400,6.473035400390625,-1.0705986027121543,-0.04310907388627529,-0.41662206852734085
1683743826177109500,6.483109619140625,-1.1130711322605609,-0.009300327786803245,-0.3544616726905107
1683743826187183400,6.493183349609375,-1.1245143172949552,0.030665771898627278,-0.29178982020020483
1683743826197257500,6.503257568359375,-1.038023197799921,0.09797697462737559,-0.11757307097911834
1683743826207331300,6.513331298828125,-0.8657271875083447,0.20264964750111103,0.1480868671864271
1683743826217405400,6.523405517578125,-0.744351801636815,0.30119243931770323,0.3696089729398489
1683743826227480300,6.533480224609375,-0.6343120487719773,0.44171442420780654,0.5161579630345106
1683743826237554400,6.543554443359375,-0.5596966605097055,0.5923112283885479,0.6985247009634972
1683743826247628500,6.553628662109375,-0.5594762957572936,0.6812731219112873,0.8662257846802472
1683743826257702400,6.563702392578125,-0.6185188518345356,0.7422469383120537,0.9175818779081105
1683743826267776500,6.573776611328125,-0.7112269461482763,0.8276677982270717,0.9286527224987745
1683743826277850400,6.583850341796875,-0.7460603591203689,0.9008680589944124,0.8725900590151547
1683743826287924500,6.593924560546875,-0.7510182737886906,0.9202712631225586,0.7213485271900891
1683743826297999400,6.603999267578125,-0.7167723053157329,0.8952730154663324,0.6387187592983246
1683743826308073500,6.614073486328125,-0.7302110480815172,0.758484956407547,0.5498895522445439
1683743826318147300,6.624147216796875,-0.7234697571277618,0.6026438218325376,0.39987726995348927
1683743826328221400,6.634221435546875,-0.6839262667685747,0.4155179066777229,0.2569645905345678
1683743826338295600,6.644295654296875,-0.6157464645117521,0.19484978740513323,0.1756149255812168
1683743826348369400,6.654369384765625,-0.5857768216511234,-0.065873863402009,0.09448094920516013
1683743826358443500,6.664443603515625,-0.5982879647105932,-0.3194447198450565,-0.07554302450120448
1683743826368518400,6.674518310546875,-0.6441466295659541,-0.5542763890266418,-0.33769407776296134
1683743826378592500,6.684592529296875,-0.7045294943362475,-0.6138865158587694,-0.5416460400342941
1683743826388666400,6.694666259765625,-0.77472355902493,-0.5833697970420122,-0.695496293053031
1683743826398740500,6.704740478515625,-0.8943208293080329,-0.5963689793467521,-0.784583858782053
1683743826408814300,6.714814453125,-1.0127449641585349,-0.6358411580353975,-0.7905956664174795
1683743826418888400,6.724888427734375,-1.0399661485612393,-0.6021218437850475,-0.6549485940873623
1683743826428962600,6.734962646484375,-0.9000830460965633,-0.5115992768168449,-0.5790495957553387
1683743826439037400,6.745037353515625,-0.8304337558090686,-0.4761071076750755,-0.5293336709499359
1683743826449111600,6.755111572265625,-0.617542700278759,-0.5735328781604766,-0.5940525190979242
1683743826459185400,6.765185302734375,-0.5581120216667652,-0.40535248649418354,-0.4768173017710447
1683743826469259500,6.775259521484375,-0.7095259874492883,-0.3141518741339445,-0.44749943735003467
1683743826479333400,6.78533349609375,-0.8389683599203824,-0.26949381723999977,-0.43115445174872874
1683743826489407500,6.795407470703125,-0.9571715454965829,-0.23310732960700986,-0.3806564366549253
1683743826499481300,6.8054814453125,-1.050281790870428,-0.23242811517119405,-0.3964858739495277
1683743826509555500,6.815555419921875,-1.0856623163312673,-0.19150223054289817,-0.35498423525989053
1683743826519630300,6.82563037109375,-1.1901315755873918,-0.17123744114935396,-0.3110761199504137
1683743826529704400,6.835704345703125,-1.1183891124129295,-0.21651684481203554,-0.22752280747294423
1683743826539778600,6.845778564453125,-0.9530892446190118,-0.26485972769856453,-0.15254033946394918
1683743826549852400,6.855852294921875,-0.945005891406536,-0.33459435818195343,-0.061030515024065965
1683743826559926500,6.865926513671875,-0.9273252732872962,-0.3027694793760776,-0.031929508224129675
1683743826570000400,6.87600048828125,-0.8292810786426067,-0.2442120764672756,-0.0883083980500698
1683743826580074500,6.886074462890625,-0.7213163784861564,-0.16655542081296443,-0.2357335864573717
1683743826590149400,6.8961494140625,-0.647270899066329,-0.07122223869264126,-0.3739993168532848
1683743826600223500,6.906223388671875,-0.6102069505631923,-0.020188217025995252,-0.4989642516493797
1683743826610297300,6.91629736328125,-0.6463707353562116,-0.050451253342628476,-0.45021103439629073
1683743826620371500,6.926371337890625,-0.7192565233469009,-0.12165069568157195,-0.3336117768853903
1683743826630445600,6.936445556640625,-0.7716156561374664,-0.25169454117715356,-0.23328151713013648
1683743826640519400,6.94651953125,-0.9088485363543033,-0.3382195629417896,-0.1430155552715063
1683743826650593500,6.956593505859375,-1.0006547133922576,-0.3394751159608364,-0.11310030947923659
1683743826660668400,6.96666845703125,-0.9650818802297115,-0.31678222263753414,-0.12070903091728687
1683743826670742500,6.976742431640625,-0.7269266195833682,-0.23915771568715571,-0.16828443656265735
1683743826680816400,6.98681640625,-0.49401335124373436,-0.15501929679811,-0.23766543130278586
1683743826690890500,6.996890380859375,-0.4350900376319885,-0.132872346919775,-0.32070728712677954
1683743826700964400,7.00696435546875,-0.4386836782097816,-0.18194120599329472,-0.36797757234573364
1683743826711038500,7.01703857421875,-0.5030769476652145,-0.3143266461789608,-0.5243769253253936
1683743826721112600,7.027112548828125,-0.5878267764508723,-0.4536281493633985,-0.718320119279623
1683743826731186400,7.0371865234375,-0.7379390119850635,-0.6067465809762478,-0.9736445413917303
1683743826741261600,7.047261474609375,-0.8703905031442641,-0.7569827351510524,-1.1813941423803567
1683743826751335400,7.05733544921875,-0.9868319397449493,-0.866151550400257,-1.3483984760046004
1683743826761409500,7.067409423828125,-1.068997012734413,-1.0181097060620785,-1.4965882190436124
1683743826771483400,7.0774833984375,-1.1532570121765136,-1.1505056676417589,-1.6193758098006248
1683743826781557500,7.0875576171875,-1.2286065599322318,-1.2894459362983703,-1.838179888767004
1683743826791631400,7.09763134765625,-1.2356769367098808,-1.387174489122629,-2.123838658866286
1683743826801705500,7.10770556640625,-1.1920143205940723,-1.4294962120234966,-2.370765839511156
1683743826811780400,7.1177802734375,-1.0401508574783802,-1.4078940365463495,-2.6031927856385706
1683743826821854500,7.1278544921875,-0.8232359532594681,-1.3357763103187084,-2.770938877540827
1683743826831928600,7.137928466796875,-0.6520622249960899,-1.2202905670076607,-2.814478451798856
1683743826842002400,7.14800244140625,-0.31249011493418366,-1.063458083307743,-2.6829741783618926
1683743826852076500,7.15807666015625,-0.1423532919704914,-1.001795700120926,-2.5020839427262542
1683743826862150400,7.168150390625,0.02813764166049659,-1.0429138924509287,-2.260978600102663
1683743826872224500,7.178224609375,0.3200596368730068,-1.1447118866711854,-2.1676894910305737
1683743826882298400,7.18829833984375,0.6118985203793272,-1.2904694341272116,-2.417484336066246
1683743826892373500,7.19837353515625,0.696021705166623,-1.1590852799385785,-2.835057421708107
1683743826902447400,7.208447265625,0.5398340952415019,-0.8079436915814876,-3.184042124292254
1683743826912521500,7.218521484375,0.19685645105242727,-0.49020109947919843,-3.316599998435378
1683743826922595600,7.228595703125,-0.09292721695713699,-0.3540010694414377,-2.998679711678624
1683743826932669400,7.23866943359375,-0.22111513238772748,-0.46896892635822296,-2.5293618257522583
1683743826942743600,7.24874365234375,-0.26532018481716513,-0.6870148804336785,-2.0650661519020796
1683743826952817400,7.2588173828125,-0.2243650740943849,-0.8452221596181392,-1.6522604267925023
1683743826962892500,7.268892578125,-0.0872714562177658,-0.7659136451035737,-1.212183248397708
1683743826972966400,7.27896630859375,0.12897826209068297,-0.2937438768774271,-0.6905138284653425
1683743826983040300,7.289040283203125,0.4042763816952705,0.5362649315178394,-0.10284370388090609
1683743826993114400,7.2991142578125,0.5809282491087914,1.393213769286871,-0.025493337696790692
1683743827003188500,7.3091884765625,0.5264344423770905,2.205848833554983,-0.08642273043394089
1683743827013262600,7.3192626953125,0.34311420311555263,2.800615638402104,-0.0137900404214859
1683743827023336400,7.32933642578125,0.3717290338337421,3.093753950601816,0.322580679783225
1683743827033410600,7.33941064453125,0.22298004947677252,2.8611194992035625,0.9899947876900433
1683743827043485400,7.3494853515625,-0.4087805612467229,2.151383668395877,1.7328139729321002
1683743827053559600,7.3595595703125,-0.8627927414916455,1.3461392989009617,1.7824165004909038
1683743827063633400,7.36963330078125,-1.2635996935106812,0.8644049989938736,1.7733271851062773
1683743827073707300,7.379707275390625,-1.8858713220074772,0.6590665508002043,1.8443273054808378
1683743827083781400,7.389781494140625,-2.459588909085095,0.864465789270401,1.9288743051707744
1683743827093855500,7.39985546875,-2.382179213929176,0.9763760121822357,1.964920016542077
1683743827103929600,7.4099296875,-1.4864030712462961,1.163030802693963,2.0829332325041294
1683743827114004700,7.420004638671875,-0.22034707062467931,1.3956401196509598,1.9116466915160417
1683743827124078800,7.430078857421875,0.9832045430280267,1.746035273554921,1.6262550479203461
1683743827134152700,7.440152587890625,1.4546658707238733,2.3186375928670167,1.4835966355234385
1683743827144226600,7.4502265625,1.4386581542529164,2.463969608387351,1.1483674865692852
1683743827154300700,7.46030078125,1.096951041456312,2.6337591888159513,0.9785755680531263
1683743827164374500,7.47037451171875,0.7179799275398254,2.4856138694405554,1.031879872739315
1683743827174448600,7.48044873046875,0.5334313155271112,1.9057161324232816,1.004225557616353
1683743827184522800,7.490522705078125,0.6130582483410835,1.4300351412057877,1.3848475074797868
1683743827194597600,7.50059765625,0.683142422914505,1.0706114621937275,1.9506588514775036
1683743827204671700,7.510671630859375,0.49131987437605856,0.7743734304130077,2.3250001136362553
1683743827214745900,7.520745849609375,0.06106836281642317,0.7963198892831802,2.794268899723887
1683743827224819700,7.53081982421875,-0.04593538335338235,0.7370920397669076,3.0558377691835164
1683743827234893600,7.5408935546875,-0.3094027799107134,0.6582306844979524,3.0722020440071818
1683743827244967700,7.5509677734375,-0.3417956678628921,0.3063479223847389,2.7728561093389987
1683743827255041500,7.56104150390625,-0.4046436075724661,-0.15122107355892658,2.4133599496126172
1683743827265116700,7.57111669921875,-0.6509061868287622,-0.40770810970962046,2.1405758586555717
1683743827275190500,7.5811904296875,-1.0126889961875976,-0.522889901638031,1.988180480620265
1683743827285264600,7.5912646484375,-1.2536404634237288,-0.7078595155417918,1.912397802144289
1683743827295338800,7.6013388671875,-1.3139046702504158,-0.9439771328806876,2.0368302374988794
1683743827305412900,7.611412841796875,-1.4400712359212338,-1.0176976181298494,2.446152796667814
1683743827315486700,7.62148681640625,-1.4859505051732063,-0.9793056358933449,2.882842086189985
1683743827325560600,7.631560546875,-1.121982899121195,-1.0772931319147347,3.0434687014758586
1683743827335634700,7.641634765625,-0.5922608133755624,-1.04093470133245,3.0381314321011303
1683743827345709600,7.65170947265625,0.17345350976362822,-0.818442873764038,2.622196176794171
1683743827355783700,7.66178369140625,1.1476410719908774,-0.3942255278021097,1.8857383432775734
1683743827365857500,7.671857421875,1.4626583307825027,-0.017184359034895895,1.3150257832348347
1683743827375931600,7.681931640625,1.3463948810972273,-0.11194295613765716,0.5471183339655399
1683743827386005800,7.692005859375,1.4893420473076402,-0.41631285644769667,-0.17096271586120126
1683743827396079900,7.702079833984375,1.8641114717505871,-0.8866641770750283,-0.8471177641063928
1683743827406153700,7.71215380859375,1.984477388318628,-1.4130501041352748,-1.4334107551187276
1683743827416227600,7.7222275390625,1.9252058457911014,-1.7855717496514318,-2.0816455307811497
1683743827426302700,7.732302734375,1.5518401506662367,-1.996374892991781,-2.5966911486595867
1683743827436376600,7.74237646484375,1.3449685015559196,-1.9563637851208446,-2.763780237957835
1683743827446450700,7.75245068359375,1.675312216556072,-1.668059468948841,-2.301258588042855
1683743827456524500,7.762524658203125,1.7212215886853635,-1.1954881341844796,-1.2899632381707429
1683743827466598700,7.7725986328125,0.7421135211907327,-0.8651537715345621,-0.45533027710616586
1683743827476672800,7.7826728515625,-0.9306991336345672,-0.7208914310723543,0.2202875955224037
1683743827486746600,7.79274658203125,-2.583355281746387,-0.6560410654991865,1.1609610106825827
1683743827496820700,7.80282080078125,-3.9524516778647896,-0.09845394448935985,2.155676981675625
1683743827506895600,7.8128955078125,-4.308977297347784,1.6238526629537342,2.49571323865056
1683743827516969700,7.8229697265625,-3.1429777079761028,3.963133815398812,2.2365181125849483
1683743827527043600,7.833043701171875,-0.1314134533483535,6.144215287443995,1.360997260814905
1683743827537117700,7.84311767578125,3.455436222195625,7.255016136685013,-1.0436527281194925
1683743827547191600,7.853191650390625,4.889346743530035,6.253566473522782,-4.006656146261096
1683743827557265700,7.863265625,2.373301349338144,3.1358038708239793,-4.859914897340536
1683743827567339800,7.87333984375,-1.5249264247775076,0.8619652046263218,-2.4464859741449354
1683743827577414700,7.88341455078125,-1.5823030934691429,0.12305413273870944,1.0749661502718926
1683743827587488800,7.89348876953125,1.220875600354001,-0.5030021288633346,3.516339895969629
1683743827597562600,7.903562744140625,1.854701984500885,-0.7274620416343212,4.4551662219583985
1683743827607636700,7.91363671875,-0.03702829266786575,-0.2649392226755619,4.496788856679201
1683743827617710600,7.923710693359375,-2.28437116612792,0.5466898794203996,3.9840252122581004
1683743827627784700,7.93378466796875,-3.6870284710645675,1.5200205325573681,3.6210178295403717
1683743827637858600,7.943858642578125,-3.9495945348680017,2.344972057563066,3.6082501179039475
1683743827647932700,7.9539326171875,-3.3524574937582012,2.9251743304848667,3.64963076056242
1683743827658007600,7.964007568359375,-2.34032160140872,3.1367917128175495,3.0209821443796154
1683743827668081700,7.97408154296875,-1.107203701531887,2.986543868204951,1.7807547047585248
1683743827678155800,7.98415576171875,-0.44432672559805214,2.493149525642395,0.5939116493225097
1683743827688229600,7.994229736328125,-0.8273650158882141,2.0400129591882226,-0.4608855731457472
1683743827698303700,8.0043037109375,-1.0031015220224857,1.7747686160862446,-1.6181570816606283
1683743827708377600,8.014377685546876,-0.41928924190998074,1.4130506886571645,-2.6373300330400467
1683743827718451700,8.02445166015625,0.2776701094329357,1.016845969736576,-2.9634757118284702
1683743827728525600,8.034525634765625,0.978059435224533,0.8160293828815222,-2.300941777178645
1683743827738600700,8.0446005859375,1.4348492634892462,0.717684159463644,-1.0900590899854898
1683743827748674600,8.054674560546875,1.4214508527338503,0.4753846386194229,-0.2808358799874782
1683743827758748700,8.064748779296876,0.9711001176059245,0.29296938537359235,0.056743046963214874
1683743827768822800,8.07482275390625,0.17461075350735336,0.00744096365571022,0.3734019354820251
1683743827778896600,8.084896728515625,-0.5295335409035906,-0.5383347235292196,0.7176216156214476
1683743827788970800,8.094970703125,-0.8741571622014045,-1.143543427413702,0.9367255543172359
1683743827799044600,8.105044677734375,-1.3152455634653568,-1.6204729573875665,1.0648726262807846
1683743827809118700,8.11511865234375,-2.048067670828104,-1.6947639360010622,1.301374859023094
1683743827819193600,8.125193603515624,-2.0262533139050007,-1.4315794480383395,1.495628434100747
1683743827829267700,8.135267822265625,-1.3240999010503292,-1.1088742650926113,1.3924550598740577
1683743827839341600,8.145341552734376,-0.30014614513516424,-0.7527151408344507,1.0714748010247945
1683743827849415400,8.15541552734375,0.6665478464663028,-0.47801674068868155,0.6085702892720699
1683743827859489800,8.16548974609375,0.7197428455591202,-0.6110837333977223,-0.13993161778151988
1683743827869563600,8.175563720703124,0.2556879947274923,-0.2822019076436758,-0.43994215383827684
1683743827879637800,8.1856376953125,0.0008382089563878253,0.08323007187247276,-0.125809568926692
1683743827889711600,8.195711669921875,-0.3646510582715273,0.20449498310685157,0.046835400933027266
1683743827899786800,8.205786865234375,-0.9225351164013147,0.22438684753477572,0.0703664986461401
1683743827909860600,8.215860595703125,-1.8633190061986444,0.15701193192005156,-0.18922025708556175
1683743827919934700,8.225934814453124,-2.5918127289682626,0.04080722668468952,-0.846184867170453
1683743827930008600,8.236008544921875,-2.1302035177230834,-0.12877835560441017,-1.8884107773572205
1683743827940082400,8.24608251953125,-1.352252228823304,-0.38425709149539466,-3.070401716586947
1683743827950156800,8.25615673828125,-0.8753764748632907,-0.5660971752017736,-4.102237165662646
1683743827960230700,8.266230712890625,-0.6337222661852836,-0.33619244102835655,-4.473709009864926
1683743827970304800,8.2763046875,-0.03664950421703979,0.4722545239001512,-3.3615175830483435
1683743827980379600,8.286379638671875,0.2493301683996804,1.1940572245985268,-1.2526321631640196
1683743827990453800,8.296453857421875,0.21084524718271566,1.5348878468215466,0.6311503698706626
1683743828000527600,8.306527587890624,0.010278232908248901,1.0285475134462116,1.359089381366968
1683743828010601700,8.316601806640625,-0.3798386905312538,0.31813948246538637,1.684057248547673
1683743828020675600,8.326675537109375,-0.6407891358315945,-0.10364859052300453,1.7942483925819397
1683743828030749400,8.33674951171875,-0.7499497677743434,-0.2566208916634321,1.4318050734877585
1683743828040823800,8.34682373046875,-0.6354992127299308,-0.27190789264440535,0.6569418137311935
1683743828050897700,8.356897705078126,-0.4041846117585897,-0.24228899945020674,-0.20291385139524937
1683743828060972800,8.366972900390625,-0.2154991922020912,-0.33565058923661706,-0.9501777410864829
1683743828071046700,8.377046630859375,-0.027970577997900543,-0.5311018496662377,-1.4045587546437979
1683743828081120800,8.387120849609374,0.3250344661435112,-0.66394204788208,-1.584747564011812
1683743828091194600,8.397194580078125,0.8597720784962177,-0.6534153931707143,-1.3059849831670522
1683743828101268700,8.407268798828126,0.9030986675906926,0.08087327961325645,-0.2815945894002914
1683743828111342600,8.417342529296874,0.40223526778910307,0.19662205777466296,0.10086918893754482
1683743828121416000,8.427416015625,0.13772331234859303,-0.03189560595452785,0.3494277701765299
1683743828131490000,8.437489990234376,0.17314124721037222,-0.20485797120034693,0.634454672113061
1683743828141565000,8.44756494140625,0.1498106405054219,-0.1402706404775381,0.7399509363293647
1683743828151639000,8.45763916015625,-0.12084463999569416,0.056551323783397674,0.48520694445371626
1683743828161713000,8.467712890625,-0.6250298411637544,0.23967501755952833,-0.074814710226655
1683743828171787000,8.477787109375,-0.574462852486968,0.3336456791549921,-0.30447219164073464
1683743828181860900,8.48786083984375,-0.43186406132280825,-0.13231179042756558,-0.4402653944432735
1683743828191934700,8.497934814453124,-0.7763713262319565,0.3304904299944639,0.09445698380768298
1683743828202009000,8.508009033203125,-0.6190320620536803,0.44856443623304365,0.0960726023107767
1683743828212083000,8.5180830078125,-0.3103700175076723,0.08414075697660446,-0.07486731719672679
1683743828222158000,8.528157958984375,-0.4827297406852245,0.07012158397436141,0.10787819091677665
1683743828232232000,8.53823193359375,-0.20267943985117598,0.19653145688176155,0.2956622777193785
1683743828242306000,8.54830615234375,0.16225860040187834,0.24100422033667562,0.2739654096961021
1683743828252380000,8.5583798828125,0.14851766895228063,0.1897013186007738,0.015945172628760336
1683743828262453800,8.568453857421876,0.14282967731058596,0.17014847686886786,-0.3309446035027504
1683743828272528000,8.57852783203125,-0.09525602523088454,0.18135025436282157,-0.6930243499815464
1683743828282601700,8.588601806640625,-0.45297231580317016,0.1251999125957489,-0.9555512508183717
1683743828292676000,8.598676025390626,-0.49040918927192684,-0.26426234632730483,-0.8709896380811929
1683743828302750700,8.608750732421875,-0.30779578310549255,-0.6790507696866989,-0.5748772785067557
1683743828312825000,8.6188251953125,-0.6144108319938183,-0.20082593920528888,0.16529636066257952
1683743828322899000,8.62889892578125,-0.606809709340334,-0.42522681526541706,0.24515607931911945
1683743828332973000,8.63897314453125,-0.13147241699397563,-0.6303372999221086,0.3499175995200872
1683743828343047000,8.649046875,0.02048983032107353,-0.4356798202186823,0.6030769525527954
1683743828353120800,8.659120849609375,0.031651860326528544,-0.22031214544177055,0.7256435940355062
1683743828363195000,8.66919482421875,0.13890344377756117,-0.18480653229653835,0.7976724729359149
1683743828373268700,8.679268798828126,0.11702011327147484,-0.15102292063832282,0.9054793521821498
1683743828383343900,8.68934375,0.11142974591851233,-0.12393792983591556,0.9076613723963498
1683743828393417700,8.699417724609376,0.22663082706928253,-0.12082535077333449,0.9095926327198743
1683743828403492000,8.7094921875,0.35190322037935257,-0.38603696064949033,0.7617763991683721
1683743828413566000,8.71956591796875,0.3108978407740593,-0.4517389746159315,0.9407114090830088
1683743828423640000,8.72964013671875,-0.04792378069162369,-0.0685363606095314,1.1916858192920685
1683743828433714000,8.7397138671875,-0.08364742050170898,-0.2054261264771223,1.120038633185625
1683743828443787800,8.749787841796875,-0.06372106928229332,-0.6004898586690426,1.0414297913730144
1683743828453862000,8.75986181640625,0.06680734485983848,-0.7791501432955265,1.2236626737892626
1683743828463935700,8.769935791015625,0.48143327113389967,-1.0324930362015963,1.498194485196471
1683743828474011000,8.780010986328126,0.6053355816671624,-1.2597598230868576,1.7847130869954824
1683743828484084700,8.790084716796875,0.28377955049024894,-1.361527422168851,1.8343425025612115
1683743828494159000,8.8001591796875,-0.10306056150197983,-1.2017933718085287,1.7426549834668634
1683743828504233000,8.81023291015625,-0.4305903515925631,-0.6983908454507589,1.4140993209272623
1683743828514307000,8.82030712890625,-0.6294961729228497,0.00203998139500618,0.869340701830387
1683743828524381000,8.830380859375,-0.6827110457599163,0.643513007837534,0.3451438092470169
1683743828534454800,8.840454833984374,-0.5489712318232283,0.9893331089109182,0.06031856736242771
1683743828544529000,8.85052880859375,-0.4240975189745426,1.1878852579653263,-0.30431144812107086
1683743828554603800,8.860603759765626,-0.6080149934768676,1.3540841204255818,-0.6441641652226447
1683743828564678000,8.870677978515625,-0.5287433038413525,1.3455115223914385,-0.8215466849982738
1683743828574751700,8.880751708984375,-0.2970681259293109,1.23780459638834,-0.826923117339611
1683743828584826000,8.890826171875,-0.08210552482195198,1.1669149506509304,-0.7233926002383232
1683743828594900000,8.90089990234375,-0.21209029707405716,1.2347218279421328,-0.5494938309252262
1683743828604973800,8.910973876953125,-0.4377859256524592,1.3401912041515112,-0.17176526441574097
1683743828615048000,8.9210478515625,-0.09062894995212555,1.4246797516524792,0.295170694810152
1683743828625121800,8.931121826171875,0.05792842082288116,1.7258178304344414,0.5710065745532512
1683743828635197000,8.941197021484374,-0.14733930022213607,2.365963407665491,0.6735206080883741
1683743828645270800,8.951270751953125,-0.41230533783938733,2.981905687010288,0.38438919344246386
1683743828655345000,8.961344970703125,-0.3735959967494011,3.345742506289482,-0.03903787892460823
1683743828665418800,8.971418701171874,-0.1997743843257427,3.4768121877014635,-0.3539011161983013
1683743828675493000,8.9814931640625,-0.49929275295138353,3.4413878230988977,-0.7354477796912193
1683743828685567000,8.99156689453125,-0.6344552566349506,3.2203280741602183,-1.0711135664969682
1683743828695640800,9.001640869140624,-0.20941311375405638,2.8752351183176037,-1.1160931104302405
1683743828705715000,9.01171484375,0.008934983339440077,2.494955113759637,-0.9109031307965516
1683743828715788800,9.021788818359376,-0.12000586935030295,2.040829536268115,-0.6891770269036293
1683743828725864000,9.031864013671875,-0.2891735184882767,1.5342214918673038,-0.4581102632135153
1683743828735937800,9.041937744140625,-0.3822703381249681,1.039597315248847,-0.33875849212408066
1683743828746012000,9.052011962890624,-0.5139888023018837,0.7183224573671817,-0.25861469582915303
1683743828756085800,9.062085693359375,-0.6434253295540809,0.5955109012126922,-0.1431330441713333
1683743828766160100,9.07216015625,-0.7342296360731124,0.5626993494570255,-0.033441081830859185
1683743828776234000,9.08223388671875,-0.7545370955646038,0.5323965656518936,0.08471534199416637
1683743828786307800,9.092307861328125,-0.7704325838327407,0.3836421744674444,0.266703309738636
1683743828796382000,9.1023818359375,-0.7238917819321156,0.09889818112552165,0.4116401884615421
1683743828806456800,9.112456787109375,-0.7730944965183735,-0.31580548655986784,0.5173685078680516
1683743828816531000,9.122531005859376,-0.8303916702330112,-0.8269301316022872,0.5632780261278152
1683743828826604800,9.132604736328124,-0.8140005804676562,-1.295364220431447,0.5380751958101988
1683743828836679000,9.142678955078125,-0.7715946133494377,-1.6180056904911995,0.36878421255350113
1683743828846752800,9.152752685546876,-0.8845172281742095,-1.7816361637681721,0.11261983248591423
1683743828856827100,9.1628271484375,-0.9062450758576392,-1.848362844607234,-0.22329612968862056
1683743828866901000,9.17290087890625,-0.9678069212794304,-1.798456950187683,-0.6321206762075424
1683743828876974800,9.182974853515624,-1.1626362504184244,-1.6009896737605331,-0.9094804045170545
1683743828887049000,9.193049072265625,-1.1302864709556102,-1.432971779179573,-1.1718366249620913
1683743828897123800,9.203123779296876,-0.9856991363227366,-1.3557283805012703,-1.3674679181337355
1683743828907198000,9.213197998046875,-0.8169009050190448,-1.3687667257726193,-1.4087351635456085
1683743828917271800,9.223271728515625,-0.6002081191182136,-1.3402706991285085,-1.3319120361059904
1683743828927346000,9.233345947265626,-0.34817046359181403,-1.278743340498209,-1.1287439176887273
1683743828937419800,9.243419677734375,-0.2751578343510628,-1.3703303218275307,-1.0567261447042227
1683743828947494000,9.253493896484375,-0.054098688200581814,-1.4932237110465765,-1.0250696082025765
1683743828957568000,9.263568115234374,0.19566400813115759,-1.587951913011074,-0.972237012681365
1683743828967641900,9.273641845703125,0.32240006251931186,-1.7020833191037177,-1.061121164792776
1683743828977717000,9.283717041015626,0.4789081365704536,-1.6754478256344794,-1.1679051307320594
1683743828987790800,9.293790771484375,0.6446610088288783,-1.5283914705395698,-1.2967676574885845
1683743828997865000,9.303864990234375,0.9136953918635845,-1.4795996748417615,-1.6894091309696435
1683743829007938800,9.313938720703124,1.247491293144226,-1.6280080290675163,-2.2416174815505743
1683743829018013000,9.324012939453125,1.179366435945034,-1.64213767670691,-2.682204363033175
1683743829028086800,9.334086669921875,0.7881845136225223,-1.5857161167830227,-2.87813317784667
1683743829038161000,9.344160888671874,0.3507248242497444,-1.467979964196682,-2.879906617259979
1683743829048235000,9.354235107421875,0.11944704815745354,-1.742377920091152,-2.9101988796710967
1683743829058308900,9.364308837890626,0.02537760236263275,-1.939210990267992,-2.739987858960032
1683743829068384000,9.374384033203125,0.01256016983296722,-1.959140264096856,-2.44828630156517
1683743829078457900,9.384457763671875,0.07605093749072402,-1.8593004182070492,-2.0930302636265754
1683743829088532000,9.394531982421874,0.32891985620949415,-1.6637264081805943,-1.7261293806016444
1683743829098605800,9.404605712890625,0.6904243966162205,-1.3163894728034733,-1.3729197537988425
1683743829108680000,9.414679931640626,1.01756610070467,-0.9595704233318567,-1.1829653372198343
1683743829118753800,9.42475390625,1.3753051876306532,-0.6836188082545995,-1.2540198181301354
1683743829128828200,9.434828125,1.7490999218225478,-0.3981634517729282,-1.4467279173314571
1683743829138902000,9.444902099609376,2.00213944786787,-0.1485848798364401,-1.6457599588572978
1683743829148975900,9.454975830078125,2.001919667637348,-0.0032592940568923947,-1.8057383393675088
1683743829159051000,9.465051025390625,1.838286271750927,0.05739771147966385,-1.997270380526781
1683743829169124900,9.475124755859374,1.6572551663398742,0.1340536656588316,-2.222682479456067
1683743829179199000,9.485198974609375,1.4674515564084052,0.11046528480052947,-2.5504858623236415
1683743829189272800,9.49527294921875,1.178566883065179,-0.06411679060161113,-2.7791975873202084
1683743829199347000,9.505346923828125,0.7740121958851813,-0.4429331523478031,-2.820985641735792
1683743829209420800,9.5154208984375,0.2354945170044899,-0.8150643372416496,-2.5053040738165375
1683743829219495200,9.5254951171875,-0.07577515275664627,-1.033012091639638,-2.0694488970309495
1683743829229569000,9.535569091796875,0.31776473086886103,-1.558423036187887,-1.9901526574760675
1683743829239644200,9.54564404296875,1.2542635637581347,-1.7169968105971811,-2.0016496185243127
1683743829249718000,9.555718017578124,2.4064006319940088,-1.5661036538183688,-1.7230559645056724
1683743829259792000,9.5657919921875,3.568721240592003,-1.2120493928849696,-0.8891986639887094
1683743829269866000,9.575865966796876,3.728717741280794,-0.5662555806338787,1.025611459994316
1683743829279939800,9.58593994140625,2.2106185321748257,-0.08544657887816429,3.1888416335284706
1683743829290014000,9.596013916015625,0.5267325485408306,0.11414426557421684,4.1864965805828565
1683743829300087800,9.606087890625,-0.28396292596682904,0.259610721129179,4.5205566857576365
1683743829310162200,9.616162109375,-0.6907645883560181,0.4693143787950277,4.417830470776558
1683743829320236000,9.626236083984375,-0.972966934391111,0.777104901203513,3.957339449906349
1683743829330311200,9.636311279296875,-1.4355882452882824,1.0198287849396466,3.4331443108886477
1683743829340385000,9.646385009765625,-2.061884453126043,0.9509750289440154,3.1049153960853815
1683743829350459000,9.656458984375,-2.474409753859043,0.7152350127458572,2.949537202847004
1683743829360533000,9.666532958984375,-2.5078105036795137,0.5444973378121852,2.7198212692439556
1683743829370606800,9.67660693359375,-2.0400281567573546,0.06518062044084072,2.0065724618792533
1683743829380681000,9.686680908203124,-1.4182066101156174,-0.5453682754278183,1.2816460762023925
1683743829390754800,9.6967548828125,-1.1568657041929662,-1.2373410705298185,0.916870514768362
1683743829400829000,9.706828857421876,-1.0790226591210812,-1.9661241316348312,1.010135658442974
1683743829410903000,9.716903076171874,-0.779910021752119,-2.534936411014199,1.3652408897340298
1683743829420978200,9.726978271484375,0.08391162439584732,-3.0135271521985527,1.718855005684495
1683743829431052000,9.737052001953124,1.3731892183899879,-3.337736309966445,1.900493429338932
1683743829441126000,9.7471259765625,2.340244444519281,-3.475003676974773,1.836577714267373
1683743829451200000,9.757199951171875,3.015557781243324,-3.584545417189598,1.827866000023484
1683743829461273900,9.76727392578125,3.7917350462079047,-3.8475305831879374,1.3898837480813264
1683743829471348000,9.777347900390625,4.751194994902611,-4.116010254949331,0.37029403259456156
1683743829481421800,9.787421875,5.183349563604593,-4.263577482175827,-0.6405664329916239
1683743829491496000,9.797495849609374,4.624729007893801,-4.396995772540569,-1.381117088779807
1683743829501570000,9.807570068359375,3.6113609434008596,-4.474144478672742,-1.5556325286865234
1683743829511645000,9.81764501953125,2.2904197986423966,-4.387816440784931,-1.685819582045078
1683743829521719000,9.827718994140625,0.5534438837252557,-3.892302621850371,-1.7812696685433387
1683743829531793000,9.83779296875,-0.7978572549182921,-3.332944399514794,-1.871483023431897
1683743829541867000,9.847866943359374,-1.2135445268135516,-2.3210469920963046,-2.051411720559001
1683743829551940900,9.85794091796875,-1.1072388459105045,-0.2564724231034517,-2.738364057150483
1683743829562015000,9.868014892578126,-1.1872376077115534,3.026503538149595,-4.385238699251413
1683743829572088800,9.8780888671875,-1.4285282437741755,6.3992012713819735,-6.8699494823724025
1683743829582163000,9.888162841796875,-2.111220584833622,8.865161761325597,-10.027859971064329
1683743829592237000,9.898237060546874,-5.629988584733009,9.388986897987127,-11.106827758193015
1683743829602312000,9.90831201171875,-9.326097018831968,6.428520889368653,-7.42857997495532
1683743829612386000,9.918385986328126,-8.551888423591851,3.1168337974160907,-1.3094587967574596
1683743829622460000,9.9284599609375,-4.497252967059612,0.6461433563411235,3.271362095826864
1683743829632534000,9.938533935546875,3.4321956318616866,-1.3286504039615392,6.4493579256922
1683743829642607900,9.94860791015625,8.936390429759024,-1.680665268021822,7.96889096699357
1683743829652682000,9.958681884765625,4.9784839936196805,-0.29280162759125233,6.200685362684727
1683743829662755800,9.968755859375,0.5467769731819629,1.014542953491211,4.24624640814662
1683743829672830000,9.978829833984374,-1.110066689747572,2.83508898589015,3.3397663544893263
1683743829682904000,9.988904052734375,-1.952913352406025,4.929930682852864,2.867648024189472
1683743829692979000,9.99897900390625,-2.6157085683405397,5.8963791752606625,1.9847247872084377
1683743829703053000,10.009052978515625,-3.1457845820903776,5.979833119016885,1.0133540359675883
1683743829713127000,10.019126953125,-3.4737399406492706,5.745197849190235,0.491665911334753
1683743829723201000,10.029200927734376,-3.6916087845921512,5.221403692188859,0.365063730725646
1683743829733275000,10.03927490234375,-3.5468718123555183,4.464010038149357,0.6708791536688804
1683743829743348700,10.0493486328125,-3.2510476220726967,3.78758435626924,1.220394611904025
1683743829753422800,10.0594228515625,-3.0630548609554764,3.1062299858152866,1.4543939219146966
1683743829763497000,10.0694970703125,-2.6970108870208263,2.21394855338037,1.387502990424633
1683743829773571000,10.079571044921876,-2.1085949125051497,1.4729548299998043,1.418738086643815
1683743829783646000,10.08964599609375,-1.3268892395079135,1.2685983785808086,1.7668670491814613
1683743829793720000,10.099719970703125,-0.4397182819545269,1.0894137778192758,2.226939552378654
1683743829803794000,10.1097939453125,0.06535773057341575,0.9026742316335439,2.406756021302938
1683743829813868000,10.119867919921875,-0.011859949141740798,0.6979676516026259,2.128798327100277
1683743829823942000,10.12994189453125,-0.27558687341809274,0.4292418961256742,1.7530892837196588
1683743829834015700,10.140015625,-0.5684381853699684,0.202658999851346,1.6583289330512285
1683743829844090000,10.150090087890625,-0.8933131135702133,-0.0644973143517971,1.630446069869399
1683743829854164000,10.1601640625,-1.1376970394730568,-0.2399596797198057,1.4144512031048535
1683743829864238000,10.170238037109375,-1.1468185035616159,-0.3111497697085142,0.8878016566723584
1683743829874313000,10.18031298828125,-1.080168395090103,-0.34549919855594635,0.41575463804304597
1683743829884387000,10.190386962890624,-0.730323276284337,-0.3786854288429022,0.26250644257068634
1683743829894461000,10.2004609375,0.0436012778500095,-0.5297609564512967,0.3858651112139225
1683743829904535000,10.21053515625,0.9311438817273825,-0.7043284188061952,0.7457792040914296
1683743829914609000,10.22060888671875,1.519875571128726,-0.6664116528660059,1.0670885487645865
1683743829924682800,10.230682861328125,1.5818576877892017,-0.57436582185328,1.1099480318039654
1683743829934757000,10.240757080078126,1.3359645263671873,-0.6087795481085777,1.1687328137278556
1683743829944831000,10.2508310546875,0.9293279183465987,-0.5816185694605112,1.2629407912105322
1683743829954905000,10.260905029296875,0.5154395856320858,-0.44263563070595263,1.0440028567314148
1683743829964980000,10.27097998046875,0.2469008771598339,-0.35896307576298714,0.5435732087045908
1683743829975054000,10.28105419921875,0.0707675537277013,-0.20368074411451814,0.1053489647001028
1683743829985128000,10.2911279296875,-0.11598309837393463,-0.07489595876932144,-0.32413667705357074
1683743829995202000,10.3012021484375,-0.18079371645860373,0.07341478030085563,-0.7802227409631013
1683743830005276000,10.31127587890625,-0.11456212566010654,0.1914051999092102,-1.117953643605113
1683743830015349800,10.321349853515626,0.17689802419431508,0.14820669417381285,-1.136816164985299
1683743830025424100,10.331424072265625,0.6567869884956627,-0.021807342660427092,-0.9515975447565317
1683743830035498000,10.341498046875,1.1452795304913073,-0.22305179953873155,-0.8244768932312726
1683743830045572000,10.351572021484374,1.3214157765328884,-0.3206938431233167,-0.8786012821286916
1683743830055646000,10.36164599609375,1.2242694075107574,-0.22758418227136135,-0.9589537527382374
1683743830065721000,10.37172119140625,1.0982960263244808,-0.16144436140954493,-0.9631447746872901
1683743830075795000,10.381794921875,0.9860689925484358,-0.12371230438649654,-0.7269844872504472
1683743830085868800,10.391868896484375,0.8759095588266849,-0.1782943739235401,-0.4046118972599506
1683743830095943000,10.40194287109375,0.7799708120286464,-0.34379122559428216,-0.22624153549075127
1683743830106016800,10.412016845703125,0.6618360155135393,-0.5883072534441948,-0.17400164516568184
1683743830116091600,10.422091552734376,0.4529238004863262,-0.9897241540551185,-0.44100598367750643
1683743830126165800,10.432165771484375,0.13352628078386186,-1.2634487407326698,-0.7676993594765663
1683743830136239900,10.442239990234375,-0.16919176066592334,-1.4456488899230957,-1.138397881218791
1683743830146313700,10.452313720703126,-0.42916181662678715,-1.5408984854131935,-1.395654732698202
1683743830156388900,10.462388916015625,-0.5891746839284896,-1.5499147355616092,-1.5556284370332956
1683743830166463000,10.472462890625,-0.7083224568784237,-1.556746627408266,-1.7900018410533665
1683743830176536800,10.482536865234374,-0.45682424199096855,-1.499300400611758,-1.921970517131686
1683743830186610700,10.492610595703125,-0.4872246409516781,-1.5797539935082197,-1.9005057042986153
1683743830196684800,10.502684814453126,-1.020552934495732,-1.751163868615031,-2.0271523085713383
1683743830206758700,10.512758544921875,-1.3310031045675277,-1.6810317632466554,-2.072256940189004
1683743830216832800,10.522832763671875,-1.2208704127222298,-1.5159154353260993,-2.0612667596191168
1683743830226907000,10.532906982421874,-0.5948485648464411,-1.3324918818205593,-1.9412223300904035
1683743830236980700,10.542980712890625,0.07151274607181549,-1.2404261770635843,-1.803500205051899
1683743830247054800,10.553054931640625,0.6333218686908483,-1.3353455176860094,-1.771086128181219
1683743830257129700,10.563129638671874,0.9120295044779777,-1.3825117580085993,-1.6406079829216003
1683743830267203800,10.573203857421875,0.651258215136826,-1.388687231773138,-1.5117559775590896
1683743830277277700,10.583277587890626,0.2715443200290203,-1.1176806718826293,-1.5030080229580403
1683743830287351800,10.593351806640625,-0.007371990072727203,-0.608747399404645,-1.6330647279351949
1683743830297425700,10.60342578125,-0.1854724488593638,-0.08738952963948249,-1.788400835597515
1683743830307499800,10.613499755859374,-0.2857388495981693,0.2919605005919933,-1.962935564726591
1683743830317574000,10.623573974609375,-0.29318697364702817,0.5813070192933082,-2.1095313165724274
1683743830327647700,10.633647705078126,-0.322599384483695,0.6956833400577306,-2.3156927715867757
1683743830337721900,10.643721923828124,-0.3667810560375452,0.701309363245964,-2.5325842949301003
1683743830347796700,10.653796630859375,-0.3497041759651154,0.6190484286665916,-2.6927549831420183
1683743830357870800,10.663870849609374,-0.202785841101408,0.5214063850820064,-2.6839848167091604
1683743830367944700,10.67394482421875,0.30975919213294983,0.5237994176983833,-2.493321375077963
1683743830378018800,10.684018798828125,1.4748497038356958,0.6748825440913439,-2.104277049306035
1683743830388092700,10.6940927734375,3.3421552954524754,0.8600999952763319,-1.5676093822062014
1683743830398166800,10.704166748046875,4.174714957374334,0.6750280900418758,-1.396492352566123
1683743830408241000,10.714240966796876,3.7648517154574392,0.2139309199720621,-1.1984089900672434
1683743830418314800,10.724314697265624,3.130215257036686,-0.3045487640082836,-0.867326439398527
1683743830428388900,10.734388916015625,2.6888521304845807,-0.7747884409546851,-0.8008107709616422
1683743830438462700,10.744462646484376,2.378530043771863,-1.097867133387923,-0.8782605058670043
1683743830448537900,10.754537841796875,1.948455788475275,-1.2533394346505402,-0.7886416097402572
1683743830458611700,10.76461181640625,1.1563397806227207,-1.266892743706703,-0.5191992304265499
1683743830468685800,10.774685791015624,0.23711072002947328,-1.1903753212153911,-0.1696288369089365
1683743830478759700,10.784759765625,-0.4771791208207607,-0.9992693965137004,-0.13672083904147148
1683743830488833800,10.794833740234376,-0.6604454379379749,-0.38753041407763955,-0.17897592644691465
1683743830498908000,10.804907958984375,-0.13556467300998046,0.6359405267566443,-0.021575871992111206
1683743830508981800,10.814981689453125,0.3605857085287571,1.9205150576263665,0.17643617883622645
1683743830519056000,10.825055908203124,-0.031721966420672834,3.372143021959066,0.5665186154842377
1683743830529129700,10.835129638671875,-0.5056826731842011,4.7272003713309765,0.7988257346242665
1683743830539203800,10.845203857421875,-0.34303251618146896,5.8880076527565715,0.8992477643162011
1683743830549278700,10.85527880859375,0.38133506656885147,6.341517728698253,1.1199433561176062
1683743830559352800,10.865352783203125,1.2053706457734108,5.783088311645388,1.8043237963944672
1683743830569426700,10.8754267578125,1.442100842052698,4.769289454519749,2.6528695474773643
1683743830579500800,10.885500732421875,1.183965454173088,4.04956180652976,3.2081390391945837
1683743830589575000,10.895574951171875,0.8037607798736542,3.3372131628751753,3.25363354691267
1683743830599648800,10.905648681640624,0.3168191205818206,2.838279890885949,3.1380075183480978
1683743830609723000,10.915722900390625,-0.08588489723019302,2.5216303547173737,3.1329034732073544
1683743830619796700,10.925796630859375,-0.3600782704632729,2.290093050906062,3.1151147185385226
1683743830629870800,10.935870849609374,-0.5652080443423241,1.919581576168537,2.776460271310806
1683743830639944700,10.94594482421875,-0.73308024684228,1.4226128822505473,2.5091730242043733
1683743830650019800,10.956019775390626,-1.0522026028651743,0.819067727664113,2.290515075710416
1683743830660093700,10.96609375,-1.438354056739807,0.3261421716570854,2.0201246018916366
1683743830670167800,10.976167724609375,-1.6475626243650912,-0.04561784183681011,1.928662123724818
1683743830680242000,10.986241943359374,-1.6411889976799487,-0.39715982768833635,1.6688719543755053
1683743830690315800,10.996315673828125,-1.5463140807211397,-0.7422755798846483,1.3658791876375675
1683743830700390000,11.006389892578126,-1.3852701168060302,-0.9744938516974448,1.219984277537465
1683743830710463700,11.016463623046874,-1.1737737305045126,-1.1090168884336948,1.1483809305727481
1683743830720537900,11.026537841796875,-1.0017514225877822,-0.9870072963118552,1.4666320567190647
1683743830730611700,11.03661181640625,-0.8237259287334978,-0.6336468628615141,2.056256822502613
1683743830740686800,11.046686767578125,-0.6645721624791622,-0.04197860855162144,2.9917355916291473
1683743830750760700,11.0567607421875,-0.5296025510191917,0.2771732658267021,3.6870945220381017
1683743830760834800,11.066834716796874,-0.3758522512435913,0.24796587604284284,3.983813030812144
1683743830770909000,11.076908935546875,-0.31509478100724514,0.0933189196884632,4.1344846537947655
1683743830780982800,11.086982666015626,-0.4464239170730114,-0.30008418581485746,4.120490030711889
1683743830791057000,11.097056884765625,-0.767789375847578,-0.8616191676676273,4.192034340965748
1683743830801130800,11.107130859375,-1.0929469934467226,-1.1248936720013618,4.218545331272483
1683743830811204600,11.11720458984375,-1.72734504000172,-1.1711164939939975,4.001995753234625
1683743830821278700,11.12727880859375,-2.08722128508687,-1.163691312429309,3.7769793756246566
1683743830831352800,11.137352783203125,-1.0873334644138812,-1.0264274525523185,3.0243431452453136
1683743830841427700,11.147427734375,0.6570142213802784,-0.5643126298725605,2.435863457843661
1683743830851501800,11.157501708984375,1.1183120285887271,0.21048691699802874,1.79497495329082
1683743830861576000,11.167575927734376,0.6920072818934917,0.7840981210917234,1.032657286852598
1683743830871649800,11.17764990234375,0.19512049410529433,0.6822761614739894,0.16691314820945263
1683743830881724000,11.187723876953125,-0.1626922425787896,0.2621048760324716,-0.6729477766364812
1683743830891797800,11.1977978515625,-0.16953465581946073,-0.008179214802384377,-1.4016852450340986
1683743830901871600,11.20787158203125,0.0664976213235408,-0.40233635354340075,-2.15600314489007
1683743830911945700,11.21794580078125,0.06961531495265662,-0.7909756056457757,-2.612131294375658
1683743830922019800,11.228019775390624,-0.07714161880426108,-1.2395377037912607,-2.983664513376355
1683743830932094000,11.238093994140625,-0.35492512548379596,-1.8840853153735397,-3.5221693327754733
1683743830942167800,11.248167724609376,-0.5182464597463607,-2.1700176417171955,-3.701386082240939
1683743830952243000,11.258242919921875,-0.3309270678460598,-2.139188203689456,-3.6545717240959403
1683743830962316800,11.26831689453125,-0.07366258104946465,-2.0818676490992307,-3.641045887568593
1683743830972391000,11.278390869140624,0.0834241331398487,-2.1311469360530375,-3.7565912521123885
1683743830982464800,11.28846484375,0.3490297107696533,-2.0271634144872426,-4.150628563866019
1683743830992538600,11.29853857421875,0.7207721886068582,-1.0145242487907409,-4.470040550485253
1683743831002612700,11.30861279296875,0.8063269040346145,0.42629415223598477,-4.32492948423922
1683743831012686800,11.318686767578125,0.5361263998299837,1.613239499002695,-3.564713173994422
1683743831022761000,11.328760986328126,0.26073943289816376,2.2083318825423714,-2.564659933626652
1683743831032834800,11.338834716796875,0.2614507960379124,2.2480770329535007,-1.5964987920820712
1683743831042908700,11.34890869140625,0.2800233580281958,2.206473102933168,-0.47637189609110353
1683743831052983800,11.35898388671875,0.1297404786348343,2.260764080569148,0.5532213270157575
1683743831063058000,11.369057861328125,0.0449123239159584,2.6183622977197167,1.2199509597897529
1683743831073131800,11.3791318359375,0.8704232363700867,3.1641572741270063,1.5423919388413427
1683743831083205600,11.38920556640625,4.206467355465889,3.7719898967742918,1.4933938069164752
1683743831093279700,11.39927978515625,6.28115415315032,3.6189369316130873,1.249389820241928
1683743831103353900,11.409353759765626,3.9865263814240692,2.5832851391196248,1.6225222911328077
1683743831113428000,11.419427978515625,1.505169584906101,1.3073241228163242,2.944040358996391
1683743831123501800,11.429501708984375,0.033438725476991386,0.35104163511395453,4.082026736804843
1683743831133575700,11.43957568359375,-0.030085341662168502,0.12040040335953235,4.476475551968813
1683743831143649800,11.44964990234375,0.8000923935592174,0.5109305837750434,4.3761908849209545
1683743831153724700,11.459724609375,1.646280183339119,0.9890122063934802,4.092241841349005
1683743831163798800,11.469798828125,2.0573013631194828,1.3812000908881426,3.6961259697556494
1683743831173872600,11.47987255859375,1.8308868091493844,1.7418991966634987,3.2844501254588363
1683743831183946800,11.48994677734375,1.2510036851793527,1.9686784922927616,2.7077280958682297
1683743831194020900,11.500020751953125,0.7408341489046811,2.4634628279089927,2.29641933131814
1683743831204095000,11.510094970703125,0.2022796086123213,2.880275450572371,2.063493203496933
1683743831214168800,11.5201689453125,-0.45386195811927316,2.88654386331737,1.8433873942822216
1683743831224242700,11.53024267578125,-1.0391799666196107,2.392598901134729,1.4771750780433415
1683743831234316800,11.54031689453125,-1.5654963355749845,1.6260989805758,1.1224077004045248
1683743831244390700,11.550390625,-2.27609082903862,0.7966887225955724,0.8018740162789821
1683743831254465800,11.5604658203125,-3.2155116137892006,0.172020700481534,0.4779454290181398
1683743831264539600,11.57053955078125,-4.223023937991261,-0.25085867487490177,0.035622517523169514
1683743831274613800,11.58061376953125,-5.000910929483175,-0.5207733478754758,-0.45204935573935506
1683743831284688000,11.59068798828125,-5.211949050623178,-0.6068190616905689,-0.8597364226609467
1683743831294762000,11.600761962890624,-4.786093289804458,-0.6518360150247812,-1.1069196238934993
1683743831304835800,11.6108359375,-3.7316689923018216,-0.675788553020358,-1.1894167053163052
1683743831314909700,11.62090966796875,-2.3850519928865133,-0.6083844113111495,-1.1195254229664802
1683743831324983800,11.63098388671875,-1.062234678992629,-0.6063555358320474,-1.0592068556040526
1683743831335057700,11.6410576171875,0.368953650836274,-0.5373264232695102,-0.9778583596944809
1683743831345131800,11.6511318359375,1.59773213326931,-0.35319267566800117,-0.8442009998768567
1683743831355206000,11.661205810546875,2.4385814846307037,-0.08299158694148064,-0.38741409422159195
1683743831365280800,11.67128076171875,2.55410755995214,0.27765783447325226,0.3624287060469389
1683743831375355000,11.68135498046875,2.030388806274533,0.6774269678771495,1.2519389202028512
1683743831385428700,11.6914287109375,1.2880337314128876,1.0394102682441473,2.050598066088557
1683743831395502800,11.7015029296875,0.8433357613496482,1.3307260411918163,2.582274500772357
1683743831405576700,11.71157666015625,0.7070085247356445,1.5192664993196725,2.733570393133163
1683743831415650800,11.72165087890625,0.8108769685544073,1.690657669726014,2.7940140481799838
1683743831425724700,11.731724609375,0.8818857836920767,1.9285989953607319,2.723516032108664
1683743831435798800,11.741798828125,0.6996218485504389,2.0202152027845384,2.648983645954728
1683743831445873000,11.751872802734376,0.04730813301131129,1.8833721986681222,2.4991870522409676
1683743831455946800,11.76194677734375,-0.8642769887000322,1.6248112788528204,2.223160033839941
1683743831466022000,11.77202197265625,-1.7055746683508157,1.3638929822564125,1.7144389428079128
1683743831476095700,11.782095703125,-2.197551545330882,1.0658832646280527,1.2026625558584927
1683743831486169900,11.792169921875,-2.3532960876636206,0.7451683787167072,0.7130483163565396
1683743831496243700,11.80224365234375,-2.315826627099514,0.3650631462037563,0.3321376126796007
1683743831506317800,11.81231787109375,-2.056764187502861,0.020081249520182608,0.0294014510512352
1683743831516391700,11.8223916015625,-1.705420208441466,-0.28674364272654057,-0.38032851987481114
1683743831526465800,11.8324658203125,-1.284130148103088,-0.479955599796772,-0.7953419841617345
1683743831536540000,11.842539794921874,-0.846048673570156,-0.6596013883292675,-1.0832850658059119
1683743831546613800,11.85261376953125,-0.5383082739137113,-0.8656476925313472,-1.266732584708929
1683743831556688000,11.86268798828125,-0.35313173926100133,-1.1305261249303817,-1.4147574925750492
1683743831566761700,11.87276171875,-0.008491349491477012,-1.282794077193737,-1.4781418772488832
1683743831576836900,11.8828369140625,0.4685568384259939,-1.3251748368054628,-1.5302110871821641
1683743831586910700,11.89291064453125,1.014743006107956,-1.3102630988776682,-1.6897949154168366
1683743831596984800,11.90298486328125,1.4599376736469567,-1.3146101881712675,-1.8744968182951212
1683743831607058700,11.91305859375,1.6865671855419873,-1.3844149612814187,-2.1716940504968165
1683743831617132800,11.9231328125,1.6621822474785148,-1.4464473468244075,-2.476319386872649
1683743831627207000,11.93320703125,1.397645760384947,-1.5204250217050312,-2.6909616699844596
1683743831637280800,11.94328076171875,1.1285977872163058,-1.5848936944842338,-2.7544132746756076
1683743831647355000,11.95335498046875,1.0484781024493277,-1.571450275543332,-2.851722725304961
1683743831657428700,11.9634287109375,1.1354286561496556,-1.603805900225043,-2.754956880033016
1683743831667502800,11.9735029296875,1.3170197335310279,-1.6082529427617787,-2.3406313980102538
1683743831677576700,11.98357666015625,1.5596832653820514,-1.494677416986227,-1.9068091883569955
1683743831687651800,11.99365185546875,1.722754351210594,-1.3873428314268588,-1.5769377670437097
1683743831697725700,12.0037255859375,1.783331861770153,-1.2985685694307088,-1.3963573280096053
1683743831707799600,12.013799560546875,1.7342763005696236,-1.1763444577753543,-1.3477443960100413
1683743831717874000,12.0238740234375,1.6701760227113962,-1.0461632496356963,-1.2213871300727128
1683743831727947800,12.03394775390625,1.5760972245663403,-1.1115502063035965,-0.8783049295306206
1683743831738022000,12.04402197265625,1.5507264903359115,-1.2413935607910156,-0.5961451074630022
1683743831748095700,12.054095703125,1.5800421627998351,-1.3205226270854473,-0.5662684401154517
1683743831758169900,12.064169921875,1.6238887571804224,-1.3999053758800029,-0.6773071408897637
1683743831768243700,12.07424365234375,1.6657662434451281,-1.3841595252156256,-0.8785925143003463
1683743831778317600,12.084317626953125,1.5520583234615624,-1.2105302204936743,-1.2294839272886513
1683743831788392000,12.094391845703125,1.273365300721675,-0.8272802602142095,-1.572095587709546
1683743831798466600,12.104466552734374,1.0059032815702258,-0.21815818227827546,-2.035212280908227
1683743831808541000,12.114541015625,0.8838152173846959,0.5472288086026906,-2.55738965036273
1683743831818614800,12.12461474609375,0.9610533553659916,1.334387486308813,-2.9451971278160807
1683743831828689000,12.13468896484375,1.3108284776754677,1.9943992090046405,-2.9202333669513463
1683743831838762800,12.1447626953125,1.9329400933049619,2.442060558918118,-2.6077047101050614
1683743831848836900,12.1548369140625,2.9961522390276194,2.6458640526294706,-2.0488906776487825
1683743831858910700,12.16491064453125,4.12179351452589,2.864448351365328,-1.301229313072562
1683743831868984600,12.174984619140625,4.5777346170067785,3.2312358371436596,-0.393588983464241
1683743831879059000,12.185058837890624,4.120000201368332,3.6464176437348126,0.6646767918974161
1683743831889132800,12.1951328125,3.0200235284805297,3.934889717689156,1.7242162404567003
1683743831899207000,12.20520703125,1.7717863854050635,3.9832133113533255,2.6801561983317135
1683743831909281800,12.21528173828125,0.7646352957308292,3.9266222400814295,3.2467835348874328
1683743831919356000,12.22535595703125,-0.067986910033226,3.920249782440066,3.737580262172222
1683743831929429800,12.2354296875,-0.3710194242596626,3.668026248952746,3.86274393441081
1683743831939503600,12.245503662109375,-0.4339958126544952,3.489783897477388,3.8385932434946297
1683743831949577700,12.25557763671875,-0.5213011711418628,3.126564917835593,3.8682302568674087
1683743831959651600,12.265651611328124,-0.6899392434477806,2.4899206267237664,3.397274540606141
1683743831969726000,12.275725830078125,-0.6646329527556896,2.0547733059465885,2.7064602678894993
1683743831979799800,12.2857998046875,-0.5824644091675057,1.850283583536744,2.0755723483473063
1683743831989874000,12.2958740234375,-0.37412330855913456,1.7534364897221326,1.7396546326071023
1683743831999947800,12.30594775390625,-0.17968210195489226,1.5796499486118554,1.5898369961053131
1683743832010021600,12.316021728515626,-0.2600583918314427,1.195062017726898,1.2959288685768842
1683743832020096800,12.3260966796875,-0.6138040982723235,0.6093985567897557,0.8367512683928012
1683743832030170600,12.336170654296875,-1.2251742473959921,-0.06488017618954181,0.23707857132554053
1683743832040244700,12.34624462890625,-1.9311118549644946,-0.7842869216620921,-0.4778530745595693
1683743832050318600,12.356318603515625,-2.3431015875160695,-1.4497557407200337,-1.1751461879014968
1683743832060393000,12.36639306640625,-2.284606143927574,-2.092883548632264,-1.7048060220658778
1683743832070466800,12.376466796875,-1.6861609428286553,-2.638925193277001,-1.783678483250737
1683743832080541000,12.386541015625,-0.8777882852453738,-2.8116034808844326,-1.040048566147685
1683743832090614800,12.39661474609375,-0.3324525238476693,-2.4916303532510993,0.2910831332355738
1683743832100688600,12.406688720703125,-0.16290632372088729,-1.971689949068427,1.4002011439561843
1683743832110762800,12.4167626953125,-0.11151632822342217,-1.4544441907972097,2.249661671796441
1683743832120836400,12.42683642578125,0.05294716181159019,-0.9206535404384135,2.959038606163859
1683743832130911200,12.4369111328125,0.3569581656813621,-0.48906654249131676,3.4450229647308586
1683743832140985300,12.4469853515625,0.45096324100308116,-0.16683073062300682,3.639928281715512
1683743832151059200,12.45705908203125,0.2329705514848232,-0.06914017172157765,3.485403490436077
1683743832161133000,12.467133056640625,-0.1070319493509829,-0.16791384968459605,3.065135758882761
1683743832171207200,12.477207275390626,-0.40736981766596436,-0.3550339196205139,2.632559749898314
1683743832181281000,12.487281005859375,-0.5691631386436522,-0.5159206471472978,2.2964684311568737
1683743832191355100,12.497355224609375,-0.4343548552252352,-0.6503162581115961,2.055872791621089
1683743832201429200,12.50742919921875,-0.01645312215089798,-0.750828888696432,1.8538059124439954
1683743832211503400,12.51750341796875,0.49297399825863536,-0.860836492857337,1.4788777903079986
1683743832221577200,12.5275771484375,1.3525927128240465,-0.5937164190113544,1.261421034297347
1683743832231651000,12.537651123046874,2.171075626337528,-0.42083647135198116,1.1411907268077135
1683743832241725200,12.54772509765625,2.5021488246560097,-0.8692425021529198,0.41631811714470385
1683743832251800000,12.557800048828126,2.536469611930847,-1.191860006815195,-0.13743161765933035
1683743832261874200,12.567874267578125,2.3847733220756053,-1.2756389447420835,-0.5349626167476177
1683743832271948000,12.577947998046875,2.2011048538982867,-1.3663620027184487,-1.1451339114755392
1683743832282022100,12.588022216796874,2.159756944465637,-1.4946236409723759,-1.730783343887329
1683743832292096300,12.59809619140625,2.275515659499168,-1.8097008132576942,-2.3993279171288013
1683743832302170400,12.60817041015625,2.5710043342173097,-2.103669146540761,-3.0846348246008155
1683743832312244200,12.618244140625,2.7583821783065794,-2.285655945241451,-3.8050311656326055
1683743832322318000,12.628318115234375,2.5148738661944865,-2.157166343450546,-4.708149049380421
1683743832332392200,12.63839208984375,2.0580629951417446,-1.3664800761401652,-5.95384586032331
1683743832342466000,12.648466064453125,1.288286244869232,0.08995850334465504,-6.739504654860496
1683743832352540200,12.6585400390625,0.5620738379698247,1.7173697355628013,-7.142129177695512
1683743832362614300,12.6686142578125,-0.25496384517140686,3.480625608509779,-7.235631052735448
