time,seconds_elapsed,z,y,x
1683743819729650400,0.035650390625,-0.01065931934863329,0.08156412839889526,-0.11431268602609634
1683743819739724300,0.045724365234375,-0.013880926184356213,0.09680323302745819,-0.12307228147983551
1683743819749798700,0.055798583984375,-0.01218209508806467,0.1259976029396057,-0.1316830813884735
1683743819759872500,0.06587255859375,-0.02560134045779705,0.18751288950443268,-0.13610002398490906
1683743819769947600,0.07594775390625,-0.0699179396033287,0.2835081219673157,-0.17148464918136597
1683743819780021500,0.086021484375,-0.12490665912628174,0.3090534210205078,-0.27197855710983276
1683743819790095600,0.096095703125,-0.16178718209266663,0.3164895176887512,-0.36687976121902466
1683743819800169500,0.10616943359375,-0.1875760853290558,0.33853915333747864,-0.42986664175987244
1683743819810243300,0.116243408203125,-0.20087352395057678,0.3370975852012634,-0.4431952238082886
1683743819820318500,0.126318359375,-0.18899744749069214,0.32272636890411377,-0.43723350763320923
1683743819830392300,0.136392333984375,-0.1450909823179245,0.26058709621429443,-0.42069554328918457
1683743819840466400,0.146466552734375,-0.06888212263584137,0.09278319031000137,-0.4104425311088562
1683743819850540300,0.156540283203125,-0.007557516917586327,-0.10117616504430771,-0.4173763394355774
1683743819860614700,0.16661474609375,-0.043556272983551025,-0.2670668363571167,-0.4348389804363251
1683743819870688500,0.1766884765625,-0.1336376965045929,-0.33255451917648315,-0.44027531147003174
1683743819880763600,0.186763671875,-0.2467246651649475,-0.3202400803565979,-0.4155369997024536
1683743819890837500,0.19683740234375,-0.35127025842666626,-0.327930212020874,-0.3718355894088745
1683743819900911600,0.20691162109375,-0.4140357971191406,-0.44063276052474976,-0.32722651958465576
1683743819910985500,0.2169853515625,-0.4444080889225006,-0.6316914558410645,-0.2736988365650177
1683743819921059300,0.227059326171875,-0.44608891010284424,-0.7953442931175232,-0.18073198199272156
1683743819931133400,0.237133544921875,-0.43365222215652466,-0.8977364301681519,-0.048799511045217514
1683743819941208300,0.247208251953125,-0.41068539023399353,-0.9706476330757141,0.09628820419311523
1683743819951282400,0.257282470703125,-0.38174188137054443,-1.0486506223678589,0.22685261070728302
1683743819961356300,0.267356201171875,-0.3695012927055359,-1.1272248029708862,0.33764052391052246
1683743819971430700,0.2774306640625,-0.39139726758003235,-1.1488828659057617,0.43949204683303833
1683743819981504500,0.28750439453125,-0.4221482574939728,-1.1230536699295044,0.5231781601905823
1683743819991578400,0.297578369140625,-0.46174973249435425,-1.0820263624191284,0.5748544335365295
1683743820001653500,0.307653564453125,-0.5011005997657776,-1.026094913482666,0.5768216848373413
1683743820011727400,0.317727294921875,-0.548949122428894,-0.9686444401741028,0.5367757081985474
1683743820021801500,0.327801513671875,-0.5958737730979919,-0.8729666471481323,0.4689052104949951
1683743820031875300,0.337875244140625,-0.63941490650177,-0.702936053276062,0.40410465002059937
1683743820041949400,0.347949462890625,-0.670630931854248,-0.47451668977737427,0.3324485123157501
1683743820052023300,0.358023193359375,-0.6835472583770752,-0.234295055270195,0.25377100706100464
1683743820062098400,0.368098388671875,-0.7026507258415222,-0.09717556089162827,0.11699366569519043
1683743820072172300,0.37817236328125,-0.7362188100814819,-0.10923249274492264,-0.10594487190246582
1683743820082246700,0.38824658203125,-0.7925341725349426,-0.18540263175964355,-0.3814745843410492
1683743820092320500,0.398320556640625,-0.8559030294418335,-0.21445879340171814,-0.605379581451416
1683743820102394400,0.408394287109375,-0.9650196433067322,0.020517772063612938,-0.8247562050819397
1683743820112468000,0.418468017578125,-1.1115750074386597,0.5802447199821472,-1.1044381856918335
1683743820122542000,0.4285419921875,-1.148223876953125,0.999805212020874,-1.2888858318328857
1683743820132616000,0.438615966796875,-0.9484229683876038,1.312930703163147,-1.4215160608291626
1683743820142690000,0.44868994140625,-0.5264765024185181,0.9940109848976135,-1.3849002122879028
1683743820152764200,0.45876416015625,0.036602865904569626,0.2730323374271393,-1.2174017429351807
1683743820162838000,0.468838134765625,0.5649964213371277,-0.317160427570343,-1.0198545455932617
1683743820172913200,0.4789130859375,1.064134120941162,-0.39116859436035156,-0.8659614324569702
1683743820182987000,0.488987060546875,1.5411525964736938,-0.34239381551742554,-0.7290253639221191
1683743820193061000,0.49906103515625,1.9448697566986084,-0.45602744817733765,-0.6178354620933533
1683743820203135000,0.509135009765625,2.178281545639038,-0.9840425252914429,-0.5838509798049927
1683743820213209000,0.519208984375,2.2309646606445312,-1.62943696975708,-0.5945348143577576
1683743820223283000,0.529282958984375,2.164306402206421,-2.0413827896118164,-0.5476691126823425
1683743820233358000,0.539358154296875,1.9764457941055298,-2.2208478450775146,-0.39712437987327576
1683743820243432000,0.549431884765625,1.6108050346374512,-2.2070624828338623,-0.1848408281803131
1683743820253506000,0.559506103515625,1.1074659824371338,-2.2749171257019043,-0.0012816550442948937
1683743820263580200,0.569580078125,0.5994316935539246,-2.495682954788208,0.09179603308439255
1683743820273654000,0.579654052734375,0.26021608710289,-2.6222927570343018,0.12393052875995636
1683743820283728100,0.58972802734375,0.13203515112400055,-2.4959919452667236,0.14490550756454468
1683743820293803000,0.599802978515625,0.156154602766037,-2.2881526947021484,0.1296304166316986
1683743820303877000,0.609877197265625,0.26178401708602905,-2.164574146270752,0.046922437846660614
1683743820313951000,0.619950927734375,0.4456055164337158,-2.0837090015411377,-0.09672553837299347
1683743820324024800,0.63002490234375,0.6802035570144653,-2.043483257293701,-0.26356497406959534
1683743820334099000,0.640098876953125,0.8486090898513794,-2.0417850017547607,-0.3920300006866455
1683743820344173000,0.650173095703125,0.896767795085907,-1.926948070526123,-0.5090386867523193
1683743820354248000,0.660248046875,0.8409974575042725,-1.7077264785766602,-0.6333531737327576
1683743820364322000,0.670322021484375,0.7496122717857361,-1.4438812732696533,-0.7807248830795288
1683743820374396200,0.680396240234375,0.6396791338920593,-1.1743102073669434,-0.9723659157752991
1683743820384470000,0.690469970703125,0.48220616579055786,-0.9725486040115356,-1.122977614402771
1683743820394544000,0.700544189453125,0.30102306604385376,-0.8372933268547058,-1.1164627075195312
1683743820404618000,0.710617919921875,0.21389515697956085,-0.6993247270584106,-0.9564551115036011
1683743820414693000,0.720693115234375,0.2576306462287903,-0.5784132480621338,-0.7136355638504028
1683743820424767000,0.73076708984375,0.36803874373435974,-0.4636664390563965,-0.47268837690353394
1683743820434840800,0.7408408203125,0.46709421277046204,-0.3468277156352997,-0.28527718782424927
1683743820444915000,0.7509150390625,0.5196189284324646,-0.2827310264110565,-0.2148883044719696
1683743820454989000,0.760989013671875,0.5100744366645813,-0.2891327142715454,-0.3157957196235657
1683743820465063200,0.771063232421875,0.4671386778354645,-0.33552879095077515,-0.5331359505653381
1683743820475138000,0.781137939453125,0.3735855519771576,-0.38477835059165955,-0.7448300719261169
1683743820485212200,0.791212158203125,0.20779135823249817,-0.38757702708244324,-0.8613065481185913
1683743820495286000,0.8012861328125,0.037967704236507416,-0.30697593092918396,-0.833519697189331
1683743820505360100,0.811360107421875,-0.041488584131002426,-0.17028439044952393,-0.6841294765472412
1683743820515434000,0.82143408203125,-0.05921059101819992,-0.07639598101377487,-0.48416176438331604
1683743820525507800,0.8315078125,-0.03058040514588356,0.010795138776302338,-0.28866273164749146
1683743820535583000,0.8415830078125,-0.02637580782175064,0.07715579122304916,-0.12599579989910126
1683743820545656800,0.85165673828125,-0.07283467799425125,0.1591062992811203,-0.028135286644101143
1683743820555731000,0.86173095703125,-0.1548326164484024,0.3016011416912079,-0.02041185274720192
1683743820565805000,0.87180517578125,-0.23450230062007904,0.41523444652557373,-0.10843610018491745
1683743820575879200,0.881879150390625,-0.28465068340301514,0.45008403062820435,-0.2489524632692337
1683743820585954000,0.8919541015625,-0.3097856342792511,0.4208260774612427,-0.3997111916542053
1683743820596028200,0.902028076171875,-0.3162651062011719,0.3541349172592163,-0.5270214676856995
1683743820606102000,0.91210205078125,-0.35683193802833557,0.23554381728172302,-0.5776007175445557
1683743820616176000,0.922176025390625,-0.3964155912399292,0.10561218857765198,-0.5616981387138367
1683743820626250000,0.93225,-0.47216975688934326,-0.05140860006213188,-0.48657655715942383
1683743820636323800,0.94232373046875,-0.5395908355712891,-0.20630045235157013,-0.39604052901268005
1683743820646399000,0.95239892578125,-0.5224687457084656,-0.3452706038951874,-0.3418958783149719
1683743820656472800,0.962472900390625,-0.4481920599937439,-0.41214364767074585,-0.3315790593624115
1683743820666547000,0.972546875,-0.33026257157325745,-0.44014325737953186,-0.3268752694129944
1683743820676621000,0.98262109375,-0.1734314262866974,-0.48262572288513184,-0.3198551833629608
1683743820686695200,0.992695068359375,-0.001130658551119268,-0.5873852372169495,-0.32711026072502136
1683743820696769000,1.00276904296875,0.18633857369422913,-0.792367160320282,-0.37752842903137207
1683743820706844200,1.01284423828125,0.4051321744918823,-1.0021384954452515,-0.4355986714363098
1683743820716918000,1.02291796875,0.6414620876312256,-1.2013999223709106,-0.46129152178764343
1683743820726992100,1.0329921875,0.866576611995697,-1.4673490524291992,-0.45411819219589233
1683743820737066000,1.04306591796875,1.0054229497909546,-1.8147571086883545,-0.4376515746116638
1683743820747139800,1.053139892578125,1.0580697059631348,-2.156200885772705,-0.4270610809326172
1683743820757214000,1.0632138671875,1.1028941869735718,-2.352410316467285,-0.4042207598686218
1683743820767288800,1.073288818359375,1.1972377300262451,-2.360183000564575,-0.3950863778591156
1683743820777363000,1.083363037109375,1.2952349185943604,-2.254758358001709,-0.47284215688705444
1683743820787437000,1.09343701171875,1.3400349617004395,-2.1550135612487793,-0.6793928742408752
1683743820797511200,1.10351123046875,1.2827775478363037,-2.0450706481933594,-0.966322660446167
1683743820807585000,1.1135849609375,1.1830787658691406,-1.7836339473724365,-1.259362816810608
1683743820817659100,1.1236591796875,1.1290442943572998,-1.3576730489730835,-1.5247844457626343
1683743820827734000,1.133734130859375,1.0937086343765259,-0.9814984202384949,-1.7432174682617188
1683743820837808000,1.14380810546875,1.0423905849456787,-0.7079723477363586,-1.8645646572113037
1683743820847882000,1.153882080078125,0.9269680380821228,-0.4779188930988312,-1.8686503171920776
1683743820857955800,1.163955810546875,0.7416594624519348,-0.2688490152359009,-1.7352937459945679
1683743820868030000,1.174030029296875,0.5577167272567749,-0.1055717021226883,-1.5016014575958252
1683743820878104000,1.18410400390625,0.38825157284736633,0.018117478117346764,-1.2633748054504395
1683743820888179000,1.194178955078125,0.23301962018013,0.17780035734176636,-1.0782277584075928
1683743820898253000,1.204253173828125,0.08851811289787292,0.3217630982398987,-0.9389564990997314
1683743820908327200,1.2143271484375,-0.06597764790058136,0.44776710867881775,-0.83000248670578
1683743820918401000,1.224401123046875,-0.19906964898109436,0.5693955421447754,-0.7380251884460449
1683743820928475100,1.23447509765625,-0.32250016927719116,0.6707671880722046,-0.6408101320266724
1683743820938549000,1.244549072265625,-0.40669944882392883,0.7814819812774658,-0.5491547584533691
1683743820948624100,1.2546240234375,-0.4704967439174652,0.9070972204208374,-0.4853879511356354
1683743820958698000,1.264697998046875,-0.5551705956459045,1.0151485204696655,-0.42962267994880676
1683743820968771800,1.274771728515625,-0.6522618532180786,1.1170389652252197,-0.3671240210533142
1683743820978846000,1.284845947265625,-0.7303350567817688,1.180859923362732,-0.3004200756549835
1683743820988920000,1.294920166015625,-0.7730295658111572,1.1997474431991577,-0.23663364350795746
1683743820998994200,1.304994140625,-0.7752962112426758,1.1609704494476318,-0.16060598194599152
1683743821009069000,1.315069091796875,-0.7483386993408203,1.0575792789459229,-0.07595483958721161
1683743821019143200,1.32514306640625,-0.7227557897567749,0.8705955743789673,0.022710489109158516
1683743821029217000,1.335217041015625,-0.7074534296989441,0.6275480389595032,0.12327823787927628
1683743821039291100,1.345291015625,-0.7185779809951782,0.3343806266784668,0.25113391876220703
1683743821049365000,1.355364990234375,-0.7696082592010498,0.08856505900621414,0.4028274118900299
1683743821059438800,1.36543896484375,-0.7861598134040833,-0.013785284012556076,0.5472983717918396
1683743821069514000,1.375513916015625,-0.7345291972160339,0.012421777471899986,0.6321934461593628
1683743821079587800,1.385587890625,-0.6416815519332886,0.05517270416021347,0.6149577498435974
1683743821089662000,1.395661865234375,-0.5459756851196289,0.04462737962603569,0.5042411684989929
1683743821099736000,1.405736083984375,-0.4725795388221741,-0.02902846597135067,0.38176852464675903
1683743821109809400,1.415809326171875,-0.43385398387908936,-0.1832561045885086,0.29733961820602417
1683743821119883500,1.425883544921875,-0.4279926121234894,-0.36582669615745544,0.24438053369522095
1683743821129958400,1.43595849609375,-0.41510292887687683,-0.5309728384017944,0.21733106672763824
1683743821140032500,1.446032470703125,-0.3674589693546295,-0.6346254348754883,0.18113312125205994
1683743821150106400,1.4561064453125,-0.27633339166641235,-0.6579866409301758,0.10027577728033066
1683743821160180500,1.466180419921875,-0.16757093369960785,-0.583182692527771,-0.04136205092072487
1683743821170254600,1.476254638671875,-0.02665151283144951,-0.4704490005970001,-0.21472518146038055
1683743821180329500,1.48632958984375,0.14949342608451843,-0.40730011463165283,-0.3937860131263733
1683743821190403600,1.496403564453125,0.3158763647079468,-0.4037970304489136,-0.547085165977478
1683743821200477400,1.5064775390625,0.4546312987804413,-0.4775063991546631,-0.6346960067749023
1683743821210551600,1.516551513671875,0.562456488609314,-0.655718207359314,-0.6240788102149963
1683743821220625400,1.52662548828125,0.6304006576538086,-1.0010396242141724,-0.4999885857105255
1683743821230699500,1.536699462890625,0.7342496514320374,-1.4741393327713013,-0.3085586428642273
1683743821240773400,1.5467734375,0.8976423144340515,-2.048788547515869,-0.1268754005432129
1683743821250848500,1.5568486328125,1.0611916780471802,-2.7047903537750244,0.09710177779197693
1683743821260922400,1.56692236328125,1.2571837902069092,-3.271162748336792,0.3696563243865967
1683743821270996200,1.576996337890625,1.5147769451141357,-3.708836793899536,0.6564644575119019
1683743821281070600,1.587070556640625,1.8327120542526245,-4.030996322631836,0.9178025722503662
1683743821291144400,1.59714453125,2.194460153579712,-4.2188897132873535,1.1224281787872314
1683743821301219600,1.607219482421875,2.5434327125549316,-4.339906692504883,1.271087408065796
1683743821311293400,1.61729345703125,2.8574957847595215,-4.54032039642334,1.3871303796768188
1683743821321367600,1.627367431640625,3.1840832233428955,-4.90199089050293,1.4804867506027222
1683743821331441400,1.63744140625,3.5083272457122803,-5.332634925842285,1.609446406364441
1683743821341515500,1.647515625,3.8834517002105713,-5.6999969482421875,1.8899898529052734
1683743821351589400,1.65758935546875,4.219809055328369,-5.941264629364014,2.3024866580963135
1683743821361664500,1.66766455078125,4.49358606338501,-6.141551494598389,2.748565673828125
1683743821371738400,1.67773828125,4.679296016693115,-6.250938892364502,3.22269606590271
1683743821381812200,1.687812255859375,4.798611164093018,-6.25822639465332,3.7484278678894043
1683743821391886600,1.697886474609375,4.8068742752075195,-6.129611492156982,4.3399128913879395
1683743821401960400,1.70796044921875,4.580573081970215,-5.770756244659424,4.9953837394714355
1683743821412034600,1.71803466796875,4.2700910568237305,-5.23452615737915,5.575319766998291
1683743821422109400,1.728109375,4.0204691886901855,-4.641216278076172,5.93950891494751
1683743821432183600,1.73818359375,3.8386876583099365,-4.021035671234131,6.0346999168396
1683743821442257400,1.74825732421875,3.667264938354492,-3.3464739322662354,5.812415599822998
1683743821452331500,1.75833154296875,3.451897382736206,-2.6118738651275635,5.312079429626465
1683743821462405400,1.7684052734375,3.146113872528076,-1.7785884141921997,4.640589714050293
1683743821472479200,1.778479248046875,2.7361490726470947,-0.9512904286384583,3.894681215286255
1683743821482554400,1.788554443359375,2.267955780029297,-0.21778739988803864,3.1826555728912354
1683743821492628200,1.798628173828125,1.829721212387085,0.3696052134037018,2.5696661472320557
1683743821502702600,1.80870263671875,1.4453785419464111,0.8044062256813049,2.0699315071105957
1683743821512776400,1.8187763671875,1.1156131029129028,1.172585129737854,1.675157070159912
1683743821522850600,1.8288505859375,0.8310561776161194,1.4135980606079102,1.359405279159546
1683743821532924400,1.83892431640625,0.533927857875824,1.5030803680419922,1.0863609313964844
1683743821542999600,1.84899951171875,0.22917431592941284,1.4092673063278198,0.8519356846809387
1683743821553073400,1.859073486328125,-0.0753306895494461,1.1878329515457153,0.6573169827461243
1683743821563147500,1.8691474609375,-0.39421093463897705,0.9294978380203247,0.501021146774292
1683743821573221400,1.879221435546875,-0.7156724333763123,0.6447414755821228,0.3790186941623688
1683743821583295200,1.889295166015625,-1.0374376773834229,0.3299430310726166,0.2765466272830963
1683743821593369600,1.89936962890625,-1.379057765007019,-0.07610594481229782,0.18265080451965332
1683743821603444200,1.9094443359375,-1.704379677772522,-0.46484649181365967,0.0942985787987709
1683743821613518600,1.9195185546875,-2.0179810523986816,-0.7881858944892883,-0.013096979819238186
1683743821623592400,1.929592529296875,-2.3113837242126465,-0.9814491271972656,-0.14846359193325043
1683743821633666600,1.93966650390625,-2.5233805179595947,-1.0810718536376953,-0.29411232471466064
1683743821643740400,1.949740478515625,-2.6112427711486816,-1.075703501701355,-0.5556723475456238
1683743821653814500,1.959814453125,-2.5189290046691895,-1.037017583847046,-0.9536511301994324
1683743821663889400,1.969889404296875,-2.1892755031585693,-1.1117712259292603,-1.3928990364074707
1683743821673963500,1.979963623046875,-1.6936872005462646,-1.4293489456176758,-1.74761164188385
1683743821684037400,1.990037353515625,-1.2267059087753296,-1.838486671447754,-1.7480005025863647
1683743821694111200,2.000111328125,-0.9422380924224854,-2.122370719909668,-1.3438060283660889
1683743821704185600,2.010185546875,-0.8784841895103455,-2.1282968521118164,-0.6611121296882629
1683743821714259500,2.020259521484375,-0.9881393313407898,-1.8791959285736084,0.04558061808347702
1683743821724334600,2.03033447265625,-1.104371428489685,-1.5767074823379517,0.5656224489212036
1683743821734408400,2.040408447265625,-1.290672779083252,-1.4638792276382446,0.8416475653648376
1683743821744482600,2.050482666015625,-1.4227339029312134,-1.5844402313232422,0.8089474439620972
1683743821754556400,2.060556396484375,-1.4604240655899048,-1.7269701957702637,0.7300277352333069
1683743821764630500,2.070630615234375,-1.394422173500061,-1.8622462749481201,0.6625789403915405
1683743821774704400,2.080704345703125,-1.2825148105621338,-1.9386374950408936,0.591081440448761
1683743821784779500,2.090779541015625,-1.1296757459640503,-1.8802900314331055,0.48667699098587036
1683743821794853400,2.100853271484375,-0.9872666001319885,-1.6676455736160278,0.3558984696865082
1683743821804927200,2.11092724609375,-1.0057076215744019,-1.161906123161316,0.16046291589736938
1683743821815001600,2.121001708984375,-1.227862000465393,-0.6004946231842041,-0.20099711418151855
1683743821825075500,2.131075439453125,-1.5248346328735352,-0.5150636434555054,-0.635141909122467
1683743821835149600,2.141149658203125,-1.8455302715301514,-0.6528344750404358,-0.9193268418312073
1683743821845224400,2.151224365234375,-1.9272544384002686,-0.7050489783287048,-0.8344468474388123
1683743821855298600,2.161298583984375,-1.7867794036865234,-0.7700743079185486,-0.6416208148002625
1683743821865372400,2.171372314453125,-1.506704330444336,-0.9298343658447266,-0.43512627482414246
1683743821875446500,2.181446533203125,-1.116119384765625,-0.9539682269096375,-0.13397780060768127
1683743821885520400,2.191520263671875,-0.7865540385246277,-1.0147804021835327,0.27160030603408813
1683743821895594200,2.20159423828125,-0.6694021224975586,-0.5985885262489319,0.37173813581466675
1683743821905669400,2.21166943359375,-0.512460470199585,-0.3851897418498993,0.4448871612548828
1683743821915743200,2.2217431640625,-0.4259568750858307,-0.3524368703365326,0.6450105309486389
1683743821925817600,2.231817626953125,-0.4550207555294037,-0.5624417066574097,1.1638201475143433
1683743821935891500,2.241891357421875,-0.5329098701477051,-0.9560830593109131,1.5692615509033203
1683743821945965600,2.251965576171875,-0.5165324807167053,-1.3294659852981567,1.6544331312179565
1683743821956039400,2.262039306640625,-0.49564868211746216,-1.2421356439590454,1.454392433166504
1683743821966113500,2.272113525390625,-0.5541250109672546,-0.9129763841629028,1.0952905416488647
1683743821976188400,2.2821884765625,-0.5473257899284363,-0.7213480472564697,0.8131412863731384
1683743821986262500,2.292262451171875,-0.41408464312553406,-0.6492482423782349,0.7260881066322327
1683743821996336400,2.30233642578125,-0.19928090274333954,-0.6206490993499756,0.7524860501289368
1683743822006410200,2.31241015625,0.07085924595594406,-0.5940907597541809,0.7594203948974609
1683743822016484600,2.322484619140625,0.3517313599586487,-0.5808777213096619,0.6670986413955688
1683743822026558500,2.332558349609375,0.5399601459503174,-0.632634162902832,0.49326246976852417
1683743822036633600,2.342633544921875,0.5924122929573059,-0.7621806859970093,0.3088861107826233
1683743822046707500,2.35270751953125,0.4815014600753784,-0.9339470863342285,0.1604074239730835
1683743822056781600,2.362781494140625,0.2908646762371063,-1.1163451671600342,0.0790875032544136
1683743822066855400,2.37285546875,0.0878942608833313,-1.2132723331451416,0.03976139798760414
1683743822076929500,2.382929443359375,0.057353246957063675,-1.221548318862915,0.030656978487968445
1683743822087003400,2.39300341796875,0.2192545235157013,-1.2339391708374023,0.07052715867757797
1683743822097078500,2.40307861328125,0.48280543088912964,-1.1769142150878906,0.0801946297287941
1683743822107152400,2.41315234375,0.7301111221313477,-0.9924697875976562,0.0405753068625927
1683743822117226500,2.4232265625,0.8889085650444031,-0.86260986328125,-0.1821732223033905
1683743822127300600,2.433300537109375,1.0190292596817017,-0.6834414005279541,-0.45880240201950073
1683743822137374700,2.443374755859375,1.1109158992767334,-0.39901310205459595,-0.8278627395629883
1683743822147448600,2.453448486328125,1.1994023323059082,-0.11570202559232712,-1.1958808898925781
1683743822157523700,2.463523681640625,1.2119296789169312,0.08446326851844788,-1.6199461221694946
1683743822167597600,2.47359765625,1.2179697751998901,0.3196965456008911,-2.013418436050415
1683743822177671400,2.48367138671875,1.233567237854004,0.6165561676025391,-2.455564498901367
1683743822187745500,2.49374560546875,1.284764051437378,0.8121374249458313,-2.855715274810791
1683743822197819400,2.5038193359375,1.3687527179718018,0.8071551322937012,-3.204625129699707
1683743822207893500,2.5138935546875,1.4895681142807007,0.6005079746246338,-3.5104081630706787
1683743822217968400,2.523968505859375,1.6576051712036133,0.26238638162612915,-3.755884885787964
1683743822228042500,2.53404248046875,1.8324764966964722,0.09119146317243576,-3.909827947616577
1683743822238116600,2.54411669921875,1.9798773527145386,0.0998494029045105,-4.04085111618042
1683743822248190700,2.554190673828125,1.9315803050994873,0.3965359330177307,-4.220240116119385
1683743822258264600,2.5642646484375,1.7605137825012207,0.7319245934486389,-4.213191032409668
1683743822268338400,2.57433837890625,1.591031789779663,0.9334795475006104,-4.148891925811768
1683743822278413600,2.58441357421875,1.4675681591033936,1.1290806531906128,-4.038854122161865
1683743822288487400,2.5944873046875,1.1149981021881104,1.790975570678711,-3.777618408203125
1683743822298561500,2.6045615234375,0.7188056707382202,2.7599589824676514,-3.0361969470977783
1683743822308635400,2.614635498046875,0.5639522075653076,2.484391450881958,-2.518693208694458
1683743822318709500,2.62470947265625,0.3922325074672699,1.7634552717208862,-2.0685346126556396
1683743822328783600,2.63478369140625,0.12572172284126282,1.0841009616851807,-1.5077499151229858
1683743822338858500,2.6448583984375,-0.14599624276161194,0.5851953029632568,-0.7582148909568787
1683743822348932600,2.6549326171875,-0.45397111773490906,0.22247759997844696,0.2023838609457016
1683743822359006700,2.6650068359375,-0.8247144818305969,-0.09006435424089432,1.2502353191375732
1683743822369080600,2.67508056640625,-1.1286449432373047,-0.22821077704429626,2.1547629833221436
1683743822379154400,2.685154541015625,-1.2475817203521729,-0.15595784783363342,2.7492175102233887
1683743822389228500,2.695228515625,-1.154474139213562,0.007211629301309586,2.984499216079712
1683743822399303400,2.705303466796875,-0.9035354852676392,0.15875717997550964,2.8758223056793213
1683743822409377500,2.71537744140625,-0.5744599103927612,0.21594643592834473,2.5285425186157227
1683743822419451400,2.725451416015625,-0.2521452009677887,0.16839784383773804,2.0687673091888428
1683743822429525500,2.735525390625,0.05339422449469566,0.027858572080731392,1.6164658069610596
1683743822439599600,2.745599609375,0.33591586351394653,-0.15946684777736664,1.20960533618927
1683743822449673700,2.755673828125,0.5290717482566833,-0.37114715576171875,0.8668221235275269
1683743822459748600,2.76574853515625,0.6169129610061646,-0.5787216424942017,0.6040354371070862
1683743822469822700,2.77582275390625,0.7114956378936768,-0.7368977069854736,0.3685004711151123
1683743822479896600,2.785896484375,0.8675916194915771,-0.7205461263656616,0.15337367355823517
1683743822489970400,2.795970458984375,1.08587646484375,-0.5772691369056702,-0.10207487642765045
1683743822500044500,2.80604443359375,1.317760705947876,-0.21839670836925507,-0.37181952595710754
1683743822510118400,2.816118408203125,1.5852969884872437,0.08867054432630539,-0.599409282207489
1683743822520193500,2.826193603515625,1.927634596824646,0.3893960416316986,-0.732230007648468
1683743822530267400,2.836267333984375,2.326889991760254,0.708900511264801,-0.8013262152671814
1683743822540341500,2.846341552734375,2.744091510772705,0.9482843279838562,-0.8502825498580933
1683743822550415600,2.85641552734375,3.1716907024383545,1.2216538190841675,-0.8765855431556702
1683743822560489500,2.866489501953125,3.520824909210205,1.363494634628296,-0.9477614164352417
1683743822570563600,2.8765634765625,3.5792088508605957,1.1294035911560059,-1.1165120601654053
1683743822580638700,2.886638671875,3.414395809173584,0.9181860685348511,-1.1884115934371948
1683743822590712600,2.896712646484375,3.041455030441284,0.9813940525054932,-1.0674986839294434
1683743822600786400,2.906786376953125,2.4183545112609863,0.9092714190483093,-0.8539348244667053
1683743822610860500,2.916860595703125,1.6623082160949707,0.7772752642631531,-0.5646374821662903
1683743822620934400,2.926934326171875,0.9081703424453735,0.7249937057495117,-0.29486149549484253
1683743822631008500,2.937008544921875,0.3907261788845062,0.7784401774406433,-0.10187340527772903
1683743822641082600,2.94708251953125,0.17339925467967987,0.7468113899230957,0.062107861042022705
1683743822651157500,2.957157470703125,0.08531652390956879,0.5562438368797302,0.18304572999477386
1683743822661231600,2.967231689453125,-0.010567864403128624,0.2947765588760376,0.25260069966316223
1683743822671305500,2.977305419921875,-0.1050909087061882,0.13122117519378662,0.31408801674842834
1683743822681379600,2.987379638671875,-0.179933100938797,0.04658220708370209,0.38877829909324646
1683743822691453400,2.997453369140625,-0.23869308829307556,-0.044542908668518066,0.45644789934158325
1683743822701527600,3.007527587890625,-0.3059784471988678,0.013569919392466545,0.4568614363670349
1683743822711602400,3.0176025390625,-0.35654202103614807,-0.14239171147346497,0.38994070887565613
1683743822721676500,3.027676513671875,-0.35812142491340637,-0.28858062624931335,0.32785752415657043
1683743822731750400,3.03775048828125,-0.32434162497520447,-0.3873836398124695,0.2653219699859619
1683743822741824500,3.047824462890625,-0.28943338990211487,-0.46335241198539734,0.19985507428646088
1683743822751898600,3.057898681640625,-0.2710738182067871,-0.34332984685897827,0.15976092219352722
1683743822761972500,3.067972412109375,-0.22976772487163544,-0.13116168975830078,0.1681317239999771
1683743822772047600,3.078047607421875,-0.18979553878307343,0.008302196860313416,0.19489489495754242
1683743822782121500,3.08812158203125,-0.14068011939525604,0.0764053463935852,0.24941040575504303
1683743822792195600,3.098195556640625,-0.07535570114850998,0.17482618987560272,0.32577282190322876
1683743822802269400,3.10826953125,0.058909401297569275,0.36055317521095276,0.3816877603530884
1683743822812343600,3.118343505859375,0.22277316451072693,0.3987564742565155,0.44267308712005615
1683743822822417400,3.12841748046875,0.3696538507938385,-0.059824138879776,0.546734094619751
1683743822832491500,3.138491455078125,0.4986496567726135,-0.7591979503631592,0.6624636650085449
1683743822842566400,3.14856640625,0.5697094798088074,-1.183234691619873,0.7198385000228882
1683743822852640500,3.158640625,0.6180133819580078,-1.1078206300735474,0.7531527876853943
1683743822862714600,3.168714599609375,0.6419693827629089,-0.7718543410301208,0.7846480011940002
1683743822872788500,3.17878857421875,0.656387448310852,-0.5620651841163635,0.8032350540161133
1683743822882862600,3.188862548828125,0.6267638206481934,-0.5338055491447449,0.7506029605865479
1683743822892936400,3.1989365234375,0.600776195526123,-0.6193244457244873,0.6611061096191406
1683743822903011600,3.209011474609375,0.5738877654075623,-0.8173235654830933,0.5951406359672546
1683743822913085400,3.21908544921875,0.5476564168930054,-1.0332117080688477,0.5826935172080994
1683743822923159600,3.22915966796875,0.5162014961242676,-1.199172019958496,0.6218158006668091
1683743822933233400,3.2392333984375,0.4615851044654846,-1.188125491142273,0.6763768196105957
1683743822943307500,3.2493076171875,0.4268611669540405,-1.0177884101867676,0.7242475748062134
1683743822953381600,3.259381591796875,0.4221036732196808,-0.7454626560211182,0.7436550855636597
1683743822963456500,3.26945654296875,0.35644832253456116,-0.413009375333786,0.7449604272842407
1683743822973530600,3.279530517578125,0.31792065501213074,-0.19312894344329834,0.7102392315864563
1683743822983604500,3.2896044921875,0.23596036434173584,-0.18896427750587463,0.654873788356781
1683743822993678600,3.2996787109375,0.1356619894504547,-0.28806397318840027,0.6241571307182312
1683743823003752400,3.30975244140625,0.1119919940829277,-0.5304071307182312,0.629869282245636
1683743823013826600,3.31982666015625,0.1745307296514511,-0.7856159806251526,0.6624615788459778
1683743823023901400,3.3299013671875,0.24259592592716217,-0.9008246064186096,0.7055225372314453
1683743823033975600,3.3399755859375,0.2656027376651764,-0.8341142535209656,0.7497256994247437
1683743823044049400,3.35004931640625,0.27304568886756897,-0.6215274333953857,0.7992509603500366
1683743823054123500,3.36012353515625,0.28625017404556274,-0.3645438253879547,0.8612855672836304
1683743823064197600,3.37019775390625,0.34747523069381714,-0.14509323239326477,0.9358751177787781
1683743823074271500,3.380271484375,0.4570730924606323,-0.006125502288341522,1.0100271701812744
1683743823084345600,3.390345703125,0.5932149887084961,0.0033996053971350193,1.0877984762191772
1683743823094420500,3.40042041015625,0.7276058197021484,-0.08043856918811798,1.1533290147781372
1683743823104494600,3.41049462890625,0.8504979014396667,-0.2045041024684906,1.2029857635498047
1683743823114568000,3.42056787109375,1.015600562095642,-0.34680265188217163,1.2860859632492065
1683743823124642000,3.43064208984375,1.2650666236877441,-0.5051547288894653,1.3866684436798096
1683743823134716200,3.440716064453125,1.5569217205047607,-0.657894492149353,1.4984644651412964
1683743823144790000,3.4507900390625,1.857508897781372,-0.7231126427650452,1.6566799879074097
1683743823154865200,3.460865234375,2.1505281925201416,-0.6670392751693726,1.8719971179962158
1683743823164939000,3.47093896484375,2.412968635559082,-0.38830238580703735,2.087111473083496
1683743823175013000,3.48101318359375,2.658186912536621,0.01429220475256443,2.2717232704162598
1683743823185087000,3.4910869140625,2.9441707134246826,0.42335692048072815,2.398401975631714
1683743823195161000,3.5011611328125,3.281118154525757,0.8552045226097107,2.475165367126465
1683743823205235000,3.51123486328125,3.651552677154541,1.3985791206359863,2.409703254699707
1683743823215309000,3.52130908203125,3.7727510929107666,1.7756457328796387,2.1286978721618652
1683743823225384000,3.531384033203125,3.523319721221924,1.6507647037506104,1.6613439321517944
1683743823235458000,3.5414580078125,2.9900920391082764,0.9600403308868408,1.0816656351089478
1683743823245532200,3.5515322265625,2.3349554538726807,-0.060240648686885834,0.40015730261802673
1683743823255606000,3.56160595703125,1.6842155456542969,-1.0106303691864014,-0.19247671961784363
1683743823265680100,3.57168017578125,1.2629272937774658,-1.55420982837677,-0.6354005336761475
1683743823275754000,3.58175390625,1.0224319696426392,-1.403512954711914,-0.9305033087730408
1683743823285829000,3.5918291015625,0.8579285740852356,0.2977049946784973,-0.9402734637260437
1683743823295903000,3.601903076171875,0.807029664516449,2.084914445877075,-0.6210651397705078
1683743823305977000,3.61197705078125,0.8582738041877747,2.9799273014068604,-0.21058429777622223
1683743823316051000,3.622051025390625,0.9935163259506226,3.0961215496063232,0.14051087200641632
1683743823326125000,3.632125,1.1343684196472168,2.740602970123291,0.4149237275123596
1683743823336199200,3.64219921875,1.2853518724441528,2.1417903900146484,0.5898391008377075
1683743823346274000,3.652274169921875,1.3957206010818481,1.4747364521026611,0.660356879234314
1683743823356348200,3.66234814453125,1.375260829925537,0.8598669171333313,0.617319643497467
1683743823366422000,3.672422119140625,1.295418381690979,0.34433162212371826,0.48424577713012695
1683743823376496000,3.68249609375,1.2158886194229126,-0.039549458771944046,0.2995752692222595
1683743823386570000,3.692570068359375,1.0653570890426636,-0.3528544008731842,0.14777155220508575
1683743823396644000,3.70264404296875,0.81025630235672,-0.5670104026794434,0.05047641322016716
1683743823406718000,3.712718017578125,0.4323540925979614,-0.637343168258667,-0.01789216697216034
1683743823416793000,3.72279296875,-0.020851721987128258,-0.5520857572555542,-0.07191678881645203
1683743823426867000,3.732866943359375,-0.4546278715133667,-0.34330806136131287,-0.056588876992464066
1683743823436941000,3.742941162109375,-0.7332515716552734,-0.02375268191099167,0.061294350773096085
1683743823447015200,3.75301513671875,-0.9267794489860535,0.2867111563682556,0.22857867181301117
1683743823457089000,3.763089111328125,-1.0375385284423828,0.48571962118148804,0.34576016664505005
1683743823467163100,3.7731630859375,-1.0565762519836426,0.6274368166923523,0.35081014037132263
1683743823477238000,3.783238037109375,-1.032873272895813,0.7516738176345825,0.2554335594177246
1683743823487312100,3.79331201171875,-1.0088132619857788,0.8754905462265015,0.09320781379938126
1683743823497386000,3.803385986328125,-1.0126818418502808,0.9926288723945618,-0.09836028516292572
1683743823507460000,3.813460205078125,-1.0667272806167603,1.1361539363861084,-0.27783215045928955
1683743823517534000,3.823533935546875,-1.1703306436538696,1.3102478981018066,-0.4401209354400635
1683743823527607800,3.83360791015625,-1.3144831657409668,1.5350874662399292,-0.4831923842430115
1683743823537683000,3.843682861328125,-1.4898438453674316,1.7384644746780396,-0.41757795214653015
1683743823547757000,3.853757080078125,-1.65194571018219,1.7786744832992554,-0.3884379267692566
1683743823557831200,3.8638310546875,-1.777459740638733,1.7485933303833008,-0.40015289187431335
1683743823567905000,3.873905029296875,-1.9198088645935059,1.8139795064926147,-0.2809394896030426
1683743823577979100,3.883979248046875,-2.0451269149780273,1.9127963781356812,-0.10562330484390259
1683743823588053000,3.894052978515625,-2.1920063495635986,2.1676387786865234,0.19284652173519135
1683743823598127000,3.904127197265625,-2.229222059249878,2.175220012664795,0.20835331082344055
1683743823608202000,3.914201904296875,-2.1569442749023438,1.5290212631225586,-0.33100223541259766
1683743823618276000,3.924276123046875,-2.1094436645507812,0.42579185962677,-0.9948345422744751
1683743823628350000,3.934349853515625,-2.1099050045013428,-0.6218344569206238,-1.4913408756256104
1683743823638423800,3.944423828125,-2.1266839504241943,-1.311326503753662,-1.7600823640823364
1683743823648498200,3.954498291015625,-2.051318407058716,-1.4117388725280762,-1.8661094903945923
1683743823658572000,3.964572021484375,-1.9181125164031982,-1.1888706684112549,-1.8394051790237427
1683743823668647200,3.974647216796875,-1.7239078283309937,-0.7217810153961182,-1.725671648979187
1683743823678721000,3.984720947265625,-1.5058133602142334,-0.23616452515125275,-1.5708965063095093
1683743823688795100,3.994795166015625,-1.310729742050171,0.13652463257312775,-1.4070762395858765
1683743823698869000,4.004868896484375,-1.177174687385559,0.36899781227111816,-1.2418254613876343
1683743823708943000,4.014943115234375,-1.1680934429168701,0.492828905582428,-1.0670530796051025
1683743823719017000,4.025016845703125,-1.2881282567977905,0.5729996562004089,-0.872894287109375
1683743823729090800,4.0350908203125,-1.4904868602752686,0.6071624755859375,-0.6746410727500916
1683743823739166000,4.045166015625,-1.6714353561401367,0.5237647891044617,-0.4895530045032501
1683743823749239800,4.05523974609375,-1.7421579360961914,0.2829079329967499,-0.33483606576919556
1683743823759314200,4.065314208984375,-1.6829910278320312,-0.09132103621959686,-0.21077485382556915
1683743823769388000,4.075387939453125,-1.4988129138946533,-0.5188716053962708,-0.10808455944061279
1683743823779462100,4.085462158203125,-1.2194099426269531,-0.9220539927482605,0.02237997204065323
1683743823789536000,4.095535888671875,-0.9540644884109497,-1.229445219039917,0.19524820148944855
1683743823799611100,4.105611083984375,-0.7791438102722168,-1.435426950454712,0.38310518860816956
1683743823809685000,4.11568505859375,-0.7045457363128662,-1.5322169065475464,0.5328364372253418
1683743823819759000,4.125759033203125,-0.7151666879653931,-1.577833652496338,0.6492708921432495
1683743823829833000,4.1358330078125,-0.7849600911140442,-1.5653209686279297,0.7247349619865417
1683743823839906800,4.14590673828125,-0.8447999954223633,-1.4741528034210205,0.748483419418335
1683743823849981200,4.155981201171875,-0.8854379057884216,-1.3655059337615967,0.7533951997756958
1683743823860055000,4.166054931640625,-0.9210643768310547,-1.3432589769363403,0.774079442024231
1683743823870130200,4.176130126953125,-0.9065361022949219,-1.283141016960144,0.791152834892273
1683743823880204000,4.1862041015625,-0.8593158721923828,-1.1355656385421753,0.7914127111434937
1683743823890278100,4.196278076171875,-0.8112481236457825,-0.9274731874465942,0.7764056921005249
1683743823900352000,4.20635205078125,-0.7658731937408447,-0.8003402352333069,0.7506992816925049
1683743823910426000,4.216426025390625,-0.7260395288467407,-0.7559568285942078,0.7480043768882751
1683743823920500000,4.2265,-0.673876941204071,-0.7863261699676514,0.7614264488220215
1683743823930575000,4.2365751953125,-0.6317867040634155,-0.9244134426116943,0.7994290590286255
1683743823940649000,4.24664892578125,-0.5499941110610962,-1.0884569883346558,0.8245498538017273
1683743823950722800,4.256722900390625,-0.4628838896751404,-1.3305343389511108,0.8665176630020142
1683743823960797200,4.266797119140625,-0.37177449464797974,-1.567000389099121,0.9319823980331421
1683743823970871000,4.27687109375,-0.25414031744003296,-1.6910052299499512,1.0146000385284424
1683743823980945200,4.286945068359375,-0.13530555367469788,-1.6944347620010376,1.0939686298370361
1683743823991019000,4.29701904296875,-0.038964904844760895,-1.6126136779785156,1.1489242315292358
1683743824001094100,4.30709423828125,0.061114292591810226,-1.4672030210494995,1.1642975807189941
1683743824011168000,4.31716796875,0.17374734580516815,-1.2821580171585083,1.145042061805725
1683743824021242000,4.3272421875,0.2844213843345642,-1.0845158100128174,1.1120883226394653
1683743824031316000,4.33731591796875,0.35985782742500305,-0.8946816921234131,1.0645337104797363
1683743824041389800,4.347389892578125,0.3967897295951843,-0.7384817004203796,1.01787269115448
1683743824051464200,4.357464111328125,0.37068262696266174,-0.607257604598999,0.9614973664283752
1683743824061538800,4.367538818359375,0.2925657331943512,-0.49598461389541626,0.8563222289085388
1683743824071613200,4.37761328125,0.2312207669019699,-0.41951438784599304,0.7106557488441467
1683743824081687000,4.38768701171875,0.2648990750312805,-0.4009462893009186,0.5619275569915771
1683743824091761200,4.39776123046875,0.2704896926879883,-0.4191540479660034,0.4289884865283966
1683743824101835000,4.4078349609375,0.17981144785881042,-0.5060391426086426,0.33663511276245117
1683743824111909000,4.4179091796875,0.026865174993872643,-0.5992729067802429,0.29378440976142883
1683743824121983000,4.42798291015625,-0.07863754779100418,-0.6308271288871765,0.30498993396759033
1683743824132058000,4.43805810546875,-0.11766305565834045,-0.5200079083442688,0.3019961714744568
1683743824142132000,4.448132080078125,-0.15565970540046692,-0.3810010552406311,0.3043504059314728
1683743824152206000,4.4582060546875,-0.20928338170051575,-0.23665374517440796,0.39614206552505493
1683743824162280200,4.4682802734375,-0.2463873326778412,-0.18755517899990082,0.5912066102027893
1683743824172354300,4.478354248046875,-0.2155556082725525,-0.34864896535873413,0.897117555141449
1683743824182428200,4.48842822265625,-0.09780366718769073,-0.576171338558197,1.2404676675796509
1683743824192502300,4.498502197265625,0.0679422989487648,-0.6690115332603455,1.4284228086471558
1683743824202577200,4.5085771484375,0.1914898008108139,-0.47641199827194214,1.3353346586227417
1683743824212651300,4.5186513671875,0.22131557762622833,-0.21776792407035828,1.015149474143982
1683743824222725000,4.52872509765625,0.2131601870059967,-0.016484880819916725,0.5815672278404236
1683743824232799000,4.538799072265625,0.23037222027778625,0.1728254109621048,0.2502140402793884
1683743824242873000,4.548873046875,0.2542133927345276,0.2114364504814148,0.2829197645187378
1683743824252947200,4.558947265625,0.27469590306282043,0.0892506092786789,0.6680088043212891
1683743824263022000,4.56902197265625,0.30561521649360657,-0.1439238041639328,1.1317349672317505
1683743824273096200,4.57909619140625,0.31124281883239746,-0.4862329661846161,1.4122346639633179
1683743824283170300,4.58917041015625,0.2958556115627289,-0.8383123874664307,1.473122239112854
1683743824293244200,4.599244140625,0.3131817579269409,-1.079403281211853,1.3851380348205566
1683743824303318300,4.609318359375,0.3395150899887085,-1.1232937574386597,1.2294185161590576
1683743824313392000,4.61939208984375,0.37014612555503845,-0.982712984085083,1.0591773986816406
1683743824323466000,4.629466064453125,0.5575565099716187,0.52007657289505,0.1357859969139099
1683743824333541000,4.639541015625,0.5355982780456543,0.3017239570617676,0.26562005281448364
1683743824343615000,4.649614990234375,0.5916586518287659,0.9374091029167175,-0.035213008522987366
1683743824353689000,4.659689208984375,0.6485221982002258,1.2556512355804443,-0.2082943320274353
1683743824363763200,4.66976318359375,0.6901212930679321,1.1943702697753906,-0.21871528029441833
1683743824373837300,4.67983740234375,0.7021274566650391,1.5588196516036987,-0.48809492588043213
1683743824383911200,4.6899111328125,0.6529055833816528,1.7119524478912354,-0.5925614237785339
1683743824393985300,4.6999853515625,0.5698734521865845,1.649516224861145,-0.48542341589927673
1683743824404060200,4.71006005859375,0.5111268162727356,1.8054379224777222,-0.5047206282615662
1683743824414134300,4.72013427734375,0.4482507109642029,1.5449368953704834,-0.3603750765323639
1683743824424208100,4.7302080078125,0.37930813431739807,1.5695172548294067,-0.44375917315483093
1683743824434282000,4.740281982421875,0.3135893642902374,1.2975435256958008,-0.39678630232810974
1683743824444356000,4.750356201171875,0.2616710364818573,0.9064235091209412,-0.25693175196647644
1683743824454430200,4.76043017578125,0.15508809685707092,0.6551499962806702,-0.09961134940385818
1683743824464505000,4.770505126953125,0.07642284780740738,0.38649535179138184,0.1290319412946701
1683743824474579200,4.7805791015625,0.05261444300413132,0.2798847556114197,0.24878786504268646
1683743824484653300,4.7906533203125,0.09057487547397614,-0.24698278307914734,0.565874457359314
1683743824494727200,4.80072705078125,0.13832172751426697,-0.3546363115310669,0.5366554856300354
1683743824504801300,4.81080126953125,0.14057742059230804,-0.3940849304199219,0.5090177059173584
1683743824514875100,4.820875244140625,0.168426513671875,-0.7668225169181824,0.6543598771095276
1683743824524949000,4.830948974609375,0.2176790088415146,-0.9178873896598816,0.7658693790435791
1683743824535024000,4.841024169921875,0.2768290042877197,-1.1612135171890259,0.8918156027793884
1683743824545098000,4.851097900390625,0.3143675923347473,-1.2261035442352295,0.9251117706298828
1683743824555172000,4.861172119140625,0.32496342062950134,-1.5757755041122437,1.128884196281433
1683743824565246200,4.87124609375,0.31709858775138855,-1.5278114080429077,1.1103830337524414
1683743824575320300,4.8813203125,0.31444647908210754,-1.3802931308746338,1.098415732383728
1683743824585394200,4.891394287109375,0.3214881420135498,-1.3472416400909424,1.1743181943893433
1683743824595468000,4.901468017578125,0.332489550113678,-1.3919175863265991,1.287682294845581
1683743824605543200,4.911543212890625,0.3290783166885376,-1.4419336318969727,1.3624366521835327
1683743824615617300,4.9216171875,0.3391570448875427,-1.2892366647720337,1.2914268970489502
1683743824625691100,4.931691162109375,0.3391397297382355,-1.229290246963501,1.2388776540756226
1683743824635765000,4.941764892578125,0.3445945978164673,-1.0560106039047241,1.0986480712890625
1683743824645839000,4.951839111328125,0.3572864234447479,-0.8200415372848511,0.8996028900146484
1683743824655913200,4.961913330078125,0.36577877402305603,-0.5931527018547058,0.6789427399635315
1683743824665987300,4.9719873046875,0.350429892539978,-0.3579505980014801,0.4785906970500946
1683743824676062200,4.982062255859375,0.3243323564529419,-0.0971839651465416,0.3303517997264862
1683743824686136300,4.99213623046875,0.31435826420783997,0.1818964183330536,0.2253505438566208
1683743824696210200,5.002210205078125,0.32041290402412415,0.40334194898605347,0.16051800549030304
1683743824706284000,5.012283935546875,0.32173171639442444,0.5807763934135437,0.12669266760349274
1683743824716358100,5.022358154296875,0.31123024225234985,0.6762312650680542,0.10926374793052673
1683743824726432000,5.032431884765625,0.3064333498477936,0.6834388971328735,0.10666636377573013
1683743824736507100,5.042507080078125,0.2982100248336792,0.6323679685592651,0.12002585083246231
1683743824746581000,5.0525810546875,0.29521557688713074,0.5687381029129028,0.15506131947040558
1683743824756655000,5.062655029296875,0.30221009254455566,0.5077149868011475,0.19952888786792755
1683743824766729200,5.072729248046875,0.3165522813796997,0.47621190547943115,0.2389165163040161
1683743824776803300,5.08280322265625,0.33587321639060974,0.42917943000793457,0.26050302386283875
1683743824786877200,5.092877197265625,0.36440926790237427,0.3394482135772705,0.2669614553451538
1683743824796951000,5.102950927734375,0.386064738035202,0.216465026140213,0.26682937145233154
1683743824807026200,5.113026123046875,0.404969185590744,0.11319109797477722,0.24976541101932526
1683743824817100000,5.12310009765625,0.3863295614719391,0.09480437636375427,0.23794348537921906
1683743824827174100,5.133174072265625,0.34124037623405457,0.11402973532676697,0.2262154519557953
1683743824837248000,5.143248046875,0.2878108322620392,0.132465198636055,0.20416833460330963
1683743824847322000,5.153322021484375,0.24368466436862946,0.16196556389331818,0.1669788956642151
1683743824857396200,5.163396240234375,0.20249779522418976,0.2174978107213974,0.12156075984239578
1683743824867470300,5.17347021484375,0.1649714559316635,0.3043123185634613,0.06071712076663971
1683743824877545200,5.183545166015625,0.13608989119529724,0.42027488350868225,-0.01454789750277996
1683743824887619300,5.193619384765625,0.10878663510084152,0.5379580855369568,-0.09013080596923828
1683743824897693200,5.203693115234375,0.08547185361385345,0.6049227714538574,-0.16334980726242065
1683743824907767000,5.21376708984375,0.044810183346271515,0.6572884917259216,-0.21505799889564514
1683743824917841200,5.223841064453125,-0.017600465565919876,0.6665962338447571,-0.2376064509153366
1683743824927915000,5.2339150390625,-0.08032830059528351,0.5851101875305176,-0.24893686175346375
1683743824937989000,5.243989013671875,-0.14539025723934174,0.3813120722770691,-0.2377607822418213
1683743824948064000,5.25406396484375,-0.21666444838047028,0.10147614032030106,-0.20459377765655518
1683743824958138000,5.26413818359375,-0.29015907645225525,-0.19968023896217346,-0.1464129388332367
1683743824968212200,5.274212158203125,-0.3736233413219452,-0.4474557042121887,-0.0755065381526947
1683743824978286300,5.284286376953125,-0.4628359377384186,-0.5578919053077698,-0.03126571327447891
1683743824988360200,5.294360107421875,-0.5522395968437195,-0.4679436683654785,-0.05767947807908058
1683743824998434000,5.30443408203125,-0.6302534937858582,-0.2682681083679199,-0.18096043169498444
1683743825008508200,5.314508056640625,-0.7060521245002747,-0.152695432305336,-0.40602660179138184
1683743825018583000,5.3245830078125,-0.7810900211334229,-0.20141978561878204,-0.7316533923149109
1683743825028657200,5.3346572265625,-0.8807505965232849,-0.3678782880306244,-1.1016106605529785
1683743825038731000,5.34473095703125,-0.9646777510643005,-0.6151192784309387,-1.3634288311004639
1683743825048805000,5.35480517578125,-1.014465570449829,-0.8854151964187622,-1.446936845779419
1683743825058879200,5.364879150390625,-1.022284984588623,-1.1165515184402466,-1.3708492517471313
1683743825068953300,5.374953369140625,-0.9964603185653687,-1.3001189231872559,-1.2058563232421875
1683743825079027200,5.385027099609375,-0.9246955513954163,-1.4237412214279175,-1.0267025232315063
1683743825089102300,5.395102294921875,-0.8052288293838501,-1.4666428565979004,-0.8701679110527039
1683743825099176200,5.40517626953125,-0.6432989239692688,-1.4527902603149414,-0.749591052532196
1683743825109250000,5.41525,-0.48372364044189453,-1.3633219003677368,-0.6497158408164978
1683743825119325000,5.425324951171875,-0.3632931709289551,-1.2080692052841187,-0.5709437131881714
1683743825129398800,5.435398681640625,-0.3336455225944519,-1.0111485719680786,-0.5216989517211914
1683743825139472600,5.44547265625,-0.40339407324790955,-0.8236426711082458,-0.4977068305015564
1683743825149547800,5.4555478515625,-0.5078049302101135,-0.6984865665435791,-0.5093563199043274
1683743825159621600,5.46562158203125,-0.522996723651886,-0.6339373588562012,-0.5337755084037781
1683743825169695700,5.47569580078125,-0.4604393541812897,-0.6101886034011841,-0.5576049089431763
1683743825179769900,5.485769775390625,-0.3851664662361145,-0.6066402792930603,-0.5647168755531311
1683743825189844000,5.495843994140625,-0.33458849787712097,-0.6217017769813538,-0.5396810173988342
1683743825199917800,5.505917724609375,-0.31935667991638184,-0.6195451617240906,-0.48120376467704773
1683743825209992000,5.515991943359375,-0.31750524044036865,-0.5844383239746094,-0.39496660232543945
1683743825220066800,5.52606689453125,-0.33155155181884766,-0.5438602566719055,-0.28451862931251526
1683743825230141000,5.536140869140625,-0.3673705458641052,-0.5615314245223999,-0.15981076657772064
1683743825240214800,5.54621484375,-0.39976558089256287,-0.6694347262382507,-0.011987268924713135
1683743825250288600,5.55628857421875,-0.4127064049243927,-0.8622318506240845,0.14213970303535461
1683743825260362800,5.56636279296875,-0.4154600501060486,-1.1124131679534912,0.31752830743789673
1683743825270436900,5.576436767578125,-0.40477171540260315,-1.3686531782150269,0.4935813844203949
1683743825280511000,5.586510986328125,-0.3926134705543518,-1.6061028242111206,0.6781939268112183
1683743825290585900,5.5965859375,-0.38058292865753174,-1.7774758338928223,0.8337371945381165
1683743825300660000,5.606659912109375,-0.3645209074020386,-1.815353274345398,0.9279347062110901
1683743825310733800,5.61673388671875,-0.338752418756485,-1.6972311735153198,0.9356805086135864
1683743825320808000,5.626807861328125,-0.31408488750457764,-1.4888875484466553,0.880104660987854
1683743825330881800,5.6368818359375,-0.3037278652191162,-1.3042007684707642,0.8024588227272034
1683743825340955600,5.64695556640625,-0.30873748660087585,-1.2154759168624878,0.7214785814285278
1683743825351029800,5.65702978515625,-0.31922635436058044,-1.2163715362548828,0.6494030356407166
1683743825361104600,5.667104736328125,-0.321981817483902,-1.2185865640640259,0.6066825985908508
1683743825371178800,5.6771787109375,-0.3080601394176483,-1.2112619876861572,0.5951662659645081
1683743825381252900,5.6872529296875,-0.27271679043769836,-1.1670998334884644,0.6143360137939453
1683743825391327000,5.697326904296875,-0.23886828124523163,-1.1548360586166382,0.6699917912483215
1683743825401400800,5.70740087890625,-0.20336531102657318,-1.1476691961288452,0.738899827003479
1683743825411475000,5.717474853515625,-0.16959722340106964,-1.1489450931549072,0.8136163949966431
1683743825421548800,5.727548828125,-0.13974882662296295,-1.1592611074447632,0.8905670642852783
1683743825431624000,5.7376240234375,-0.10970916599035263,-1.1632468700408936,0.9820085167884827
1683743825441697800,5.74769775390625,-0.07747907191514969,-1.115863561630249,1.081013798713684
1683743825451771600,5.757771728515625,-0.050855714827775955,-1.0644962787628174,1.1718800067901611
1683743825461845800,5.767845703125,-0.03689470887184143,-1.055329442024231,1.231858491897583
1683743825471919900,5.777919921875,-0.045405104756355286,-1.0870401859283447,1.2635512351989746
1683743825481994000,5.787993896484375,-0.055995404720306396,-1.1544996500015259,1.2867063283920288
1683743825492067800,5.79806787109375,-0.05680740252137184,-1.3025237321853638,1.3324048519134521
1683743825502143000,5.80814306640625,-0.04785066097974777,-1.5126076936721802,1.3926138877868652
1683743825512216800,5.818216796875,-0.03683982044458389,-1.7161089181900024,1.4498356580734253
1683743825522291000,5.828291015625,-0.03975825756788254,-1.8803775310516357,1.4982168674468994
1683743825532364800,5.83836474609375,-0.05610207840800285,-2.030728816986084,1.5278687477111816
1683743825542438700,5.848438720703125,-0.07646077126264572,-2.151921510696411,1.561262607574463
1683743825552512800,5.8585126953125,-0.08535599708557129,-2.1750223636627197,1.5808197259902954
1683743825562587000,5.8685869140625,-0.07476171106100082,-2.204955816268921,1.6214685440063477
1683743825572661800,5.878661865234375,-0.05193096771836281,-2.2136921882629395,1.6766563653945923
1683743825582736000,5.88873583984375,-0.03738876432180405,-2.174429416656494,1.7064679861068726
1683743825592810000,5.89881005859375,-0.04424054175615311,-2.099370002746582,1.7011797428131104
1683743825602883800,5.9088837890625,-0.07922936975955963,-1.906672477722168,1.647139310836792
1683743825612957700,5.918957763671875,-0.13904449343681335,-1.6487504243850708,1.564589023590088
1683743825623031800,5.92903173828125,-0.20436155796051025,-1.4829376935958862,1.5215046405792236
1683743825633105700,5.939105712890625,-0.2598205506801605,-1.3221850395202637,1.5287175178527832
1683743825643180800,5.949180908203125,-0.27587977051734924,-1.13782799243927,1.569723129272461
1683743825653254700,5.959254638671875,-0.2617831230163574,-0.9567450284957886,1.6123725175857544
1683743825663328800,5.969328857421875,-0.22294631600379944,-0.8126727938652039,1.6553953886032104
1683743825673403000,5.97940283203125,-0.17247702181339264,-0.7204003930091858,1.675474762916565
1683743825683477000,5.98947705078125,-0.11030682176351547,-0.6948644518852234,1.6554977893829346
1683743825693550800,5.99955078125,-0.043046820908784866,-0.7170576453208923,1.6308826208114624
1683743825703624700,6.009624755859375,0.024613874033093452,-0.7414303421974182,1.65484619140625
1683743825713699800,6.019699951171875,0.09480894356966019,-0.7603901624679565,1.7264175415039062
1683743825723773700,6.029773681640625,0.1619320511817932,-0.7891342043876648,1.7885323762893677
1683743825733847800,6.039847900390625,0.21588049829006195,-0.8158843517303467,1.763501524925232
1683743825743921700,6.049921630859375,0.2484169900417328,-0.8478488922119141,1.61880362033844
1683743825753995800,6.059995849609375,0.2511504590511322,-0.8747998476028442,1.3678483963012695
1683743825764070000,6.07006982421875,0.22714966535568237,-0.8658772110939026,1.0720666646957397
1683743825774144000,6.08014404296875,0.18985769152641296,-0.8404578566551208,0.8228795528411865
1683743825784217900,6.0902177734375,0.17996466159820557,-0.8164390921592712,0.6798017621040344
1683743825794293000,6.10029296875,0.2130616307258606,-0.7449052333831787,0.6626142859458923
1683743825804366800,6.110366943359375,0.22017927467823029,-0.7073522210121155,0.7341873049736023
1683743825814440700,6.120440673828125,0.21780933439731598,-0.8009998798370361,0.8097233772277832
1683743825824514800,6.130514892578125,0.22791258990764618,-0.9982051849365234,0.8657624125480652
1683743825834588700,6.140588623046875,0.2462836056947708,-1.2100931406021118,0.9175726175308228
1683743825844662800,6.150662841796875,0.2572925090789795,-1.3843259811401367,0.9724329113960266
1683743825854737000,6.16073681640625,0.25889891386032104,-1.4970964193344116,1.0541274547576904
1683743825864811800,6.170811767578125,0.26283130049705505,-1.5377272367477417,1.1489378213882446
1683743825874886000,6.180885986328125,0.2553296983242035,-1.5537703037261963,1.2337610721588135
1683743825884960000,6.1909599609375,0.22747495770454407,-1.5862339735031128,1.2944871187210083
1683743825895033900,6.201033935546875,0.19048631191253662,-1.6288493871688843,1.3255195617675781
1683743825905107700,6.211107666015625,0.16175059974193573,-1.6264704465866089,1.318034291267395
1683743825915181800,6.221181884765625,0.1451769471168518,-1.554452896118164,1.2768583297729492
1683743825925255700,6.231255615234375,0.1277114599943161,-1.4280084371566772,1.2138645648956299
1683743825935330800,6.241330810546875,0.08840374648571014,-1.2965188026428223,1.1196848154067993
1683743825945404700,6.25140478515625,0.03149942308664322,-1.17556893825531,1.0356494188308716
1683743825955478800,6.261478759765625,-0.03010028973221779,-1.0586671829223633,0.9592061042785645
1683743825965553000,6.271552978515625,-0.07768934220075607,-0.9586305022239685,0.9162666201591492
1683743825975626800,6.281626708984375,-0.11203853040933609,-0.8861117959022522,0.9035124778747559
1683743825985700900,6.291700927734375,-0.14140428602695465,-0.8526378273963928,0.9122329354286194
1683743825995774700,6.301774658203125,-0.15478719770908356,-0.869437575340271,0.9305933117866516
1683743826005849900,6.311849853515625,-0.15938809514045715,-0.9042344093322754,0.9403140544891357
1683743826015923700,6.321923828125,-0.1536271572113037,-0.9347600936889648,0.9348013401031494
1683743826025997800,6.331997802734375,-0.1368200182914734,-0.9760465025901794,0.9266218543052673
1683743826036071700,6.34207177734375,-0.12025435268878937,-1.0451233386993408,0.9309811592102051
1683743826046145800,6.352145751953125,-0.10491859912872314,-1.0887079238891602,0.9563003778457642
1683743826056220000,6.362219970703125,-0.09014417976140976,-1.0883831977844238,0.9893850684165955
1683743826066293800,6.372293701171875,-0.0732615739107132,-1.0831847190856934,1.0182775259017944
1683743826076369000,6.382368896484375,-0.05684904009103775,-1.0909249782562256,1.039229393005371
1683743826086442800,6.39244287109375,-0.04270641878247261,-1.1142611503601074,1.050372838973999
1683743826096516900,6.402516845703125,-0.03706451132893562,-1.177956223487854,1.0620242357254028
1683743826106590700,6.4125908203125,-0.029633279889822006,-1.2558894157409668,1.0600767135620117
1683743826116664300,6.422664306640625,-0.036605168133974075,-1.295397162437439,1.0574710369110107
1683743826126738400,6.432738525390625,-0.04464874416589737,-1.291306734085083,1.0489877462387085
1683743826136812500,6.4428125,-0.05227044224739075,-1.2750276327133179,1.040639877319336
1683743826146887400,6.452887451171875,-0.053767964243888855,-1.2719380855560303,1.0335850715637207
1683743826156961500,6.46296142578125,-0.06465443968772888,-1.2787503004074097,1.0265705585479736
1683743826167035400,6.473035400390625,-0.0725003182888031,-1.2804434299468994,1.0172133445739746
1683743826177109500,6.483109619140625,-0.07508545368909836,-1.2719815969467163,1.0017387866973877
1683743826187183400,6.493183349609375,-0.08381763845682144,-1.2483707666397095,0.9767687916755676
1683743826197257500,6.503257568359375,-0.08383814245462418,-1.1993638277053833,0.9322828054428101
1683743826207331300,6.513331298828125,-0.0805283635854721,-1.1318150758743286,0.8797253966331482
1683743826217405400,6.523405517578125,-0.0748547688126564,-1.0508294105529785,0.8311296701431274
1683743826227480300,6.533480224609375,-0.06165512651205063,-0.9856539368629456,0.7834216952323914
1683743826237554400,6.543554443359375,-0.03917032480239868,-0.949459969997406,0.7397754192352295
1683743826247628500,6.553628662109375,-0.01626967079937458,-0.9372707009315491,0.7039350271224976
1683743826257702400,6.563702392578125,0.015272542834281921,-0.9307944178581238,0.676569402217865
1683743826267776500,6.573776611328125,0.043186917901039124,-0.9130379557609558,0.6520551443099976
1683743826277850400,6.583850341796875,0.06919161975383759,-0.8862044811248779,0.621474027633667
1683743826287924500,6.593924560546875,0.09356391429901123,-0.8644489049911499,0.5914902687072754
1683743826297999400,6.603999267578125,0.1163395345211029,-0.8347871899604797,0.5675761103630066
1683743826308073500,6.614073486328125,0.13000023365020752,-0.798919141292572,0.5530874133110046
1683743826318147300,6.624147216796875,0.1449355185031891,-0.7590500116348267,0.5363765954971313
1683743826328221400,6.634221435546875,0.15703868865966797,-0.7299685478210449,0.5260338187217712
1683743826338295600,6.644295654296875,0.17363257706165314,-0.7073572874069214,0.5086998343467712
1683743826348369400,6.654369384765625,0.18015798926353455,-0.7264079451560974,0.5023782253265381
1683743826358443500,6.664443603515625,0.15981383621692657,-0.7734758853912354,0.5076600909233093
1683743826368518400,6.674518310546875,0.1339171826839447,-0.819745659828186,0.5200549364089966
1683743826378592500,6.684592529296875,0.121564120054245,-0.834852933883667,0.5268843770027161
1683743826388666400,6.694666259765625,0.10757528245449066,-0.8299785256385803,0.5452411770820618
1683743826398740500,6.704740478515625,0.10072776675224304,-0.8298506736755371,0.5742877125740051
1683743826408814300,6.714814453125,0.11110694706439972,-0.8427584767341614,0.6019155979156494
1683743826418888400,6.724888427734375,0.13331452012062073,-0.8522452116012573,0.6119381785392761
1683743826428962600,6.734962646484375,0.1463087946176529,-0.866840124130249,0.6182166934013367
1683743826439037400,6.745037353515625,0.1244402602314949,-0.9421902894973755,0.6142768263816833
1683743826449111600,6.755111572265625,0.12370936572551727,-0.9890494346618652,0.5996166467666626
1683743826459185400,6.765185302734375,0.12804605066776276,-1.0003989934921265,0.581875741481781
1683743826469259500,6.775259521484375,0.1345399171113968,-0.9892403483390808,0.5686604976654053
1683743826479333400,6.78533349609375,0.13312683999538422,-0.9698269367218018,0.5498721599578857
1683743826489407500,6.795407470703125,0.12309309095144272,-0.9199041724205017,0.5199838280677795
1683743826499481300,6.8054814453125,0.11244390904903412,-0.8685415983200073,0.47567200660705566
1683743826509555500,6.815555419921875,0.1051880344748497,-0.8012137413024902,0.435895174741745
1683743826519630300,6.82563037109375,0.10177359730005264,-0.7566313147544861,0.40395694971084595
1683743826529704400,6.835704345703125,0.10388656705617905,-0.7393212914466858,0.3723452389240265
1683743826539778600,6.845778564453125,0.10807865113019943,-0.7358983755111694,0.3573300838470459
1683743826549852400,6.855852294921875,0.1165313869714737,-0.7447446584701538,0.35346680879592896
1683743826559926500,6.865926513671875,0.13239210844039917,-0.7609161734580994,0.34848591685295105
1683743826570000400,6.87600048828125,0.14672531187534332,-0.7763752341270447,0.3425806164741516
1683743826580074500,6.886074462890625,0.1509445607662201,-0.7644591331481934,0.32810738682746887
1683743826590149400,6.8961494140625,0.15192924439907074,-0.7374680042266846,0.3065231442451477
1683743826600223500,6.906223388671875,0.16313450038433075,-0.7093887329101562,0.27950963377952576
1683743826610297300,6.91629736328125,0.17667421698570251,-0.6750547289848328,0.24921268224716187
1683743826620371500,6.926371337890625,0.1870080828666687,-0.6420354843139648,0.21694636344909668
1683743826630445600,6.936445556640625,0.20365457236766815,-0.6100411415100098,0.19777710735797882
1683743826640519400,6.94651953125,0.2218913733959198,-0.5794406533241272,0.18416889011859894
1683743826650593500,6.956593505859375,0.2392786145210266,-0.5346637964248657,0.15544340014457703
1683743826660668400,6.96666845703125,0.25914180278778076,-0.49128568172454834,0.1148376539349556
1683743826670742500,6.976742431640625,0.28110459446907043,-0.4494122862815857,0.06008017808198929
1683743826680816400,6.98681640625,0.3013310432434082,-0.4123251140117645,0.014971555210649967
1683743826690890500,6.996890380859375,0.32700425386428833,-0.37941187620162964,-0.019457750022411346
1683743826700964400,7.00696435546875,0.3442772626876831,-0.3632776439189911,-0.0307327751070261
1683743826711038500,7.01703857421875,0.363860160112381,-0.34356385469436646,-0.03839083015918732
1683743826721112600,7.027112548828125,0.37285977602005005,-0.33064594864845276,-0.039106156677007675
1683743826731186400,7.0371865234375,0.3794756233692169,-0.3144243657588959,-0.03602669760584831
1683743826741261600,7.047261474609375,0.37899094820022583,-0.2936770021915436,-0.027795663103461266
1683743826751335400,7.05733544921875,0.3717925250530243,-0.28902262449264526,-0.015404325909912586
1683743826761409500,7.067409423828125,0.35735073685646057,-0.3147602081298828,-0.0026187561452388763
1683743826771483400,7.0774833984375,0.32631540298461914,-0.37733566761016846,0.023781416937708855
1683743826781557500,7.0875576171875,0.2869877219200134,-0.4532884955406189,0.05325435474514961
1683743826791631400,7.09763134765625,0.23390015959739685,-0.532787024974823,0.0898684710264206
1683743826801705500,7.10770556640625,0.17449596524238586,-0.6014974117279053,0.12459743022918701
1683743826811780400,7.1177802734375,0.11750687658786774,-0.6702184081077576,0.15456509590148926
1683743826821854500,7.1278544921875,0.06010936200618744,-0.7351590394973755,0.19068527221679688
1683743826831928600,7.137928466796875,0.02520204335451126,-0.8288690447807312,0.19691072404384613
1683743826842002400,7.14800244140625,-0.017546750605106354,-0.9286292195320129,0.18900780379772186
1683743826852076500,7.15807666015625,-0.07013975828886032,-0.9965041279792786,0.15627986192703247
1683743826862150400,7.168150390625,-0.15232518315315247,-1.0073416233062744,0.08868429809808731
1683743826872224500,7.178224609375,-0.27480417490005493,-0.9872240424156189,-0.02836930751800537
1683743826882298400,7.18829833984375,-0.4249252378940582,-0.9605165719985962,-0.16983535885810852
1683743826892373500,7.19837353515625,-0.5797234773635864,-0.9018428325653076,-0.3078148365020752
1683743826902447400,7.208447265625,-0.7250612378120422,-0.7881988286972046,-0.42400163412094116
1683743826912521500,7.218521484375,-0.8390863537788391,-0.6273596286773682,-0.5170936584472656
1683743826922595600,7.228595703125,-0.9315446615219116,-0.4664474427700043,-0.5875739455223083
1683743826932669400,7.23866943359375,-1.0252087116241455,-0.3263779878616333,-0.6304147243499756
1683743826942743600,7.24874365234375,-1.1153533458709717,-0.1764715611934662,-0.6496654152870178
1683743826952817400,7.2588173828125,-1.190219521522522,-0.0305313877761364,-0.6465250253677368
1683743826962892500,7.268892578125,-1.2271453142166138,0.07320006191730499,-0.6131119132041931
1683743826972966400,7.27896630859375,-1.2232146263122559,0.09256204962730408,-0.5356090068817139
1683743826983040300,7.289040283203125,-1.2245136499404907,0.02074405550956726,-0.3911506235599518
1683743826993114400,7.2991142578125,-1.245743751525879,-0.11218523979187012,-0.20558522641658783
1683743827003188500,7.3091884765625,-1.2565621137619019,-0.3421883285045624,0.014662714675068855
1683743827013262600,7.3192626953125,-1.210257649421692,-0.6753676533699036,0.2162688970565796
1683743827023336400,7.32933642578125,-1.1078604459762573,-0.9546107053756714,0.3747096657752991
1683743827033410600,7.33941064453125,-0.9833256602287292,-1.0389854907989502,0.4926069378852844
1683743827043485400,7.3494853515625,-0.9312086701393127,-1.0150049924850464,0.568545937538147
1683743827053559600,7.3595595703125,-0.9459322690963745,-0.9486148953437805,0.6390789747238159
1683743827063633400,7.36963330078125,-1.0050357580184937,-0.8175058960914612,0.7467617392539978
1683743827073707300,7.379707275390625,-1.081923484802246,-0.6670247316360474,0.8888071775436401
1683743827083781400,7.389781494140625,-1.163140058517456,-0.5529253482818604,1.0159244537353516
1683743827093855500,7.39985546875,-1.2190697193145752,-0.5586428642272949,1.070970892906189
1683743827103929600,7.4099296875,-1.2783620357513428,-0.7005068063735962,1.0097415447235107
1683743827114004700,7.420004638671875,-1.3266571760177612,-0.9000385403633118,0.8398778438568115
1683743827124078800,7.430078857421875,-1.3150805234909058,-1.043859601020813,0.6495746970176697
1683743827134152700,7.440152587890625,-1.2797096967697144,-1.0560314655303955,0.5149986147880554
1683743827144226600,7.4502265625,-1.2162100076675415,-0.9969232678413391,0.5084714889526367
1683743827154300700,7.46030078125,-1.1458632946014404,-0.848757803440094,0.583107590675354
1683743827164374500,7.47037451171875,-1.113565444946289,-0.6887739896774292,0.6565445065498352
1683743827174448600,7.48044873046875,-1.0607359409332275,-0.6155112385749817,0.7011928558349609
1683743827184522800,7.490522705078125,-0.9752472043037415,-0.6467850208282471,0.7244513034820557
1683743827194597600,7.50059765625,-0.8677266836166382,-0.6760216951370239,0.7290485501289368
1683743827204671700,7.510671630859375,-0.7395290732383728,-0.676994800567627,0.7110045552253723
1683743827214745900,7.520745849609375,-0.5982453227043152,-0.68221116065979,0.661695659160614
1683743827224819700,7.53081982421875,-0.4622589945793152,-0.6161261200904846,0.5838134288787842
1683743827234893600,7.5408935546875,-0.3772987723350525,-0.5795657634735107,0.5286979675292969
1683743827244967700,7.5509677734375,-0.3417373299598694,-0.6350223422050476,0.5353055596351624
1683743827255041500,7.56104150390625,-0.2939581573009491,-0.7397292852401733,0.5960343480110168
1683743827265116700,7.57111669921875,-0.22387710213661194,-0.858017086982727,0.697945237159729
1683743827275190500,7.5811904296875,-0.1484912633895874,-0.9561172723770142,0.8097122311592102
1683743827285264600,7.5912646484375,-0.08248801529407501,-1.0056564807891846,0.9016842842102051
1683743827295338800,7.6013388671875,-0.0069549730978906155,-0.9752331972122192,0.9870643615722656
1683743827305412900,7.611412841796875,0.07525067776441574,-0.9059728980064392,1.0656113624572754
1683743827315486700,7.62148681640625,0.12425516545772552,-0.806316077709198,1.1193125247955322
1683743827325560600,7.631560546875,0.16244836151599884,-0.6466473340988159,1.1307095289230347
1683743827335634700,7.641634765625,0.1776336282491684,-0.5290594100952148,1.0964652299880981
1683743827345709600,7.65170947265625,0.2019253820180893,-0.5068718194961548,0.9677823781967163
1683743827355783700,7.66178369140625,0.2766875922679901,-0.5129576921463013,0.8222552537918091
1683743827365857500,7.671857421875,0.3557368516921997,-0.5476562976837158,0.7170137763023376
1683743827375931600,7.681931640625,0.3962831199169159,-0.6002302765846252,0.6195452213287354
1683743827386005800,7.692005859375,0.3723066747188568,-0.6952649354934692,0.5330995917320251
1683743827396079900,7.702079833984375,0.29128146171569824,-0.7601611018180847,0.467684268951416
1683743827406153700,7.71215380859375,0.15139947831630707,-0.7985777258872986,0.41503116488456726
1683743827416227600,7.7222275390625,-0.013574154116213322,-0.7026216387748718,0.3490022122859955
1683743827426302700,7.732302734375,-0.1636344939470291,-0.5201349258422852,0.23515154421329498
1683743827436376600,7.74237646484375,-0.22301313281059265,-0.402024507522583,0.10262119770050049
1683743827446450700,7.75245068359375,-0.18376772105693817,-0.3683251440525055,0.009162883274257183
1683743827456524500,7.762524658203125,-0.12926039099693298,-0.21054615080356598,-0.00012981973122805357
1683743827466598700,7.7725986328125,-0.10603070259094238,0.1456841379404068,0.0707683190703392
1683743827476672800,7.7826728515625,-0.07836722582578659,0.4977753162384033,0.2549481987953186
1683743827486746600,7.79274658203125,-0.021819259971380234,0.6838319897651672,0.5620463490486145
1683743827496820700,7.80282080078125,0.028974425047636032,0.6985899209976196,0.9077931642532349
1683743827506895600,7.8128955078125,0.06473854929208755,0.5723893642425537,1.1322225332260132
1683743827516969700,7.8229697265625,0.04761502146720886,0.2944363057613373,1.0441019535064697
1683743827527043600,7.833043701171875,-0.17325876653194427,-0.10598167032003403,0.6249662637710571
1683743827537117700,7.84311767578125,-0.5937689542770386,-0.30109015107154846,0.1803613305091858
1683743827547191600,7.853191650390625,-0.9836996793746948,0.010123122483491898,0.04572230949997902
1683743827557265700,7.863265625,-1.0756930112838745,0.8193869590759277,0.1756262332201004
1683743827567339800,7.87333984375,-0.8224884271621704,1.447148323059082,0.20485389232635498
1683743827577414700,7.88341455078125,-0.4071170687675476,1.3250269889831543,0.07945257425308228
1683743827587488800,7.89348876953125,-0.014655026607215405,0.68563312292099,0.07257016748189926
1683743827597562600,7.903562744140625,0.2680171728134155,0.00492169288918376,0.2880129814147949
1683743827607636700,7.91363671875,0.3662486672401428,-0.3534303307533264,0.5861296653747559
1683743827617710600,7.923710693359375,0.35044920444488525,-0.3761769235134125,0.8317596912384033
1683743827627784700,7.93378466796875,0.3490329086780548,-0.22746016085147858,0.9347257614135742
1683743827637858600,7.943858642578125,0.395186185836792,0.011010470800101757,0.8698648810386658
1683743827647932700,7.9539326171875,0.4083144962787628,0.25027552247047424,0.6615704894065857
1683743827658007600,7.964007568359375,0.34916433691978455,0.40963879227638245,0.3409583568572998
1683743827668081700,7.97408154296875,0.2662377655506134,0.4733029901981354,0.06364472210407257
1683743827678155800,7.98415576171875,0.18710629642009735,0.41625168919563293,-0.008756372146308422
1683743827688229600,7.994229736328125,0.11771737039089203,0.38654202222824097,0.07042233645915985
1683743827698303700,8.0043037109375,0.05415881797671318,0.43044447898864746,0.17702458798885345
1683743827708377600,8.014377685546876,0.030491041019558907,0.4159608781337738,0.2382756918668747
1683743827718451700,8.02445166015625,0.10834763944149017,0.21879243850708008,0.23101525008678436
1683743827728525600,8.034525634765625,0.262037068605423,-0.0895233228802681,0.17386780679225922
1683743827738600700,8.0446005859375,0.3882179856300354,-0.33848145604133606,0.0994088426232338
1683743827748674600,8.054674560546875,0.4122069478034973,-0.4036274254322052,0.03553478419780731
1683743827758748700,8.064748779296876,0.3743942975997925,-0.33287927508354187,0.00195552920922637
1683743827768822800,8.07482275390625,0.3042495548725128,-0.19043129682540894,0.0018237028270959854
1683743827778896600,8.084896728515625,0.20841583609580994,0.03236369416117668,-0.0019296249374747276
1683743827788970800,8.094970703125,0.10877580940723419,0.3118845522403717,-0.005112102255225182
1683743827799044600,8.105044677734375,0.029656793922185898,0.5697605609893799,0.027369985356926918
1683743827809118700,8.11511865234375,0.0028206519782543182,0.7544936537742615,0.03415438532829285
1683743827819193600,8.125193603515624,-0.005009856075048447,0.8500569462776184,-0.029512787237763405
1683743827829267700,8.135267822265625,0.008021257817745209,0.8546897768974304,-0.17687852680683136
1683743827839341600,8.145341552734376,0.02453538216650486,0.7771427631378174,-0.3652968406677246
1683743827849415400,8.15541552734375,-0.031458377838134766,0.7010017037391663,-0.4891410171985626
1683743827859489800,8.16548974609375,-0.05456937849521637,0.7136996388435364,-0.49576619267463684
1683743827869563600,8.175563720703124,-0.0057576317340135574,0.7626810073852539,-0.42971712350845337
1683743827879637800,8.1856376953125,0.09436190128326416,0.7337484359741211,-0.2796734571456909
1683743827889711600,8.195711669921875,0.22549594938755035,0.6099812388420105,-0.10429602861404419
1683743827899786800,8.205786865234375,0.36431896686553955,0.424315482378006,0.06233648955821991
1683743827909860600,8.215860595703125,0.464186429977417,0.20014791190624237,0.2018062323331833
1683743827919934700,8.225934814453124,0.5039706826210022,-0.018934885039925575,0.22250723838806152
1683743827930008600,8.236008544921875,0.4675591289997101,-0.1927732527256012,0.15317529439926147
1683743827940082400,8.24608251953125,0.34285011887550354,-0.25469738245010376,0.08108562976121902
1683743827950156800,8.25615673828125,0.16216954588890076,-0.23511327803134918,0.07096081972122192
1683743827960230700,8.266230712890625,0.03812027350068092,-0.1728392243385315,0.061207424849271774
1683743827970304800,8.2763046875,0.03852986544370651,-0.16703248023986816,0.0590960718691349
1683743827980379600,8.286379638671875,0.16303038597106934,-0.16645511984825134,0.06723114848136902
1683743827990453800,8.296453857421875,0.2734522223472595,-0.03633226454257965,0.07669602334499359
1683743828000527600,8.306527587890624,0.33286789059638977,0.13940094411373138,0.10213267803192139
1683743828010601700,8.316601806640625,0.3723210096359253,0.2341194599866867,0.13421444594860077
1683743828020675600,8.326675537109375,0.3992920517921448,0.2568165063858032,0.13628199696540833
1683743828030749400,8.33674951171875,0.39886778593063354,0.21640785038471222,0.10088059306144714
1683743828040823800,8.34682373046875,0.3554303050041199,0.1813819706439972,0.047448474913835526
1683743828050897700,8.356897705078126,0.27303290367126465,0.18236121535301208,0.02245337888598442
1683743828060972800,8.366972900390625,0.18105904757976532,0.18912909924983978,0.05764997377991676
1683743828071046700,8.377046630859375,0.0766812413930893,0.1426931619644165,0.08306079357862473
1683743828081120800,8.387120849609374,0.0014512635534629226,-0.007786901667714119,0.048881616443395615
1683743828091194600,8.397194580078125,0.03137187659740448,-0.10013999789953232,-0.0380580760538578
1683743828101268700,8.407268798828126,0.0961211696267128,-0.12265940755605698,-0.1224122941493988
1683743828111342600,8.417342529296874,0.15052689611911774,-0.17734450101852417,-0.1945408135652542
1683743828121416000,8.427416015625,0.1920500248670578,-0.24756141006946564,-0.23956984281539917
1683743828131490000,8.437489990234376,0.21098695695400238,-0.23711943626403809,-0.2594785690307617
1683743828141565000,8.44756494140625,0.1909562200307846,-0.09408394992351532,-0.2493397444486618
1683743828151639000,8.45763916015625,0.1323387175798416,-0.0005926177836954594,-0.17229770123958588
1683743828161713000,8.467712890625,0.09227672964334488,0.04430373013019562,-0.11079783737659454
1683743828171787000,8.477787109375,0.031539883464574814,0.02458195760846138,-0.05497505143284798
1683743828181860900,8.48786083984375,0.09122491627931595,0.13675512373447418,-0.050798870623111725
1683743828191934700,8.497934814453124,0.16554947197437286,0.1917845457792282,-0.0770467221736908
1683743828202009000,8.508009033203125,0.17956066131591797,0.15283553302288055,-0.11018086969852448
1683743828212083000,8.5180830078125,0.17565034329891205,0.11336055397987366,-0.1193045973777771
1683743828222158000,8.528157958984375,0.18461742997169495,0.0671674981713295,-0.12416677922010422
1683743828232232000,8.53823193359375,0.21157900989055634,0.03833478316664696,-0.1468299925327301
1683743828242306000,8.54830615234375,0.2376071959733963,0.015929607674479485,-0.1618853360414505
1683743828252380000,8.5583798828125,0.24932749569416046,-0.025169093161821365,-0.1640307754278183
1683743828262453800,8.568453857421876,0.223901629447937,-0.11702843010425568,-0.13334283232688904
1683743828272528000,8.57852783203125,0.1592579185962677,-0.21721601486206055,-0.05981535464525223
1683743828282601700,8.588601806640625,0.07339281588792801,-0.26450470089912415,0.026364803314208984
1683743828292676000,8.598676025390626,0.009595193900167942,-0.2506392300128937,0.06390339136123657
1683743828302750700,8.608750732421875,0.04404127970337868,-0.1435716301202774,0.054357241839170456
1683743828312825000,8.6188251953125,0.06635616719722748,-0.09504508972167969,0.036956146359443665
1683743828322899000,8.62889892578125,0.05666746199131012,-0.10881844162940979,0.019629010930657387
1683743828332973000,8.63897314453125,0.05190280079841614,-0.09165491163730621,0.015942931175231934
1683743828343047000,8.649046875,0.0529073029756546,-0.07872791588306427,0.019873710349202156
1683743828353120800,8.659120849609375,0.05325085297226906,-0.09504537284374237,0.03173862397670746
1683743828363195000,8.66919482421875,0.04163764417171478,-0.10325483977794647,0.059446997940540314
1683743828373268700,8.679268798828126,0.003540594130754471,-0.10897903144359589,0.08511987328529358
1683743828383343900,8.68934375,-0.049103256314992905,-0.11148932576179504,0.08701834827661514
1683743828393417700,8.699417724609376,-0.13022340834140778,-0.21421943604946136,0.08701381832361221
1683743828403492000,8.7094921875,-0.17434468865394592,-0.22678528726100922,0.03403564170002937
1683743828413566000,8.71956591796875,-0.1961410641670227,-0.17715275287628174,-0.06715169548988342
1683743828423640000,8.72964013671875,-0.23041494190692902,-0.17558573186397552,-0.17110562324523926
1683743828433714000,8.7397138671875,-0.297081857919693,-0.18545781075954437,-0.23264488577842712
1683743828443787800,8.749787841796875,-0.36050912737846375,-0.13797712326049805,-0.26424092054367065
1683743828453862000,8.75986181640625,-0.4030778706073761,-0.10790897160768509,-0.29046666622161865
1683743828463935700,8.769935791015625,-0.42052698135375977,-0.08721113204956055,-0.3298371136188507
1683743828474011000,8.780010986328126,-0.42636144161224365,-0.05448194593191147,-0.3605545461177826
1683743828484084700,8.790084716796875,-0.4422224760055542,0.001382102258503437,-0.36896267533302307
1683743828494159000,8.8001591796875,-0.45473772287368774,0.07481317967176437,-0.3557904362678528
1683743828504233000,8.81023291015625,-0.4641340672969818,0.13339528441429138,-0.33884817361831665
1683743828514307000,8.82030712890625,-0.45709800720214844,0.11868876963853836,-0.3155079483985901
1683743828524381000,8.830380859375,-0.43097808957099915,0.0802561566233635,-0.2897547483444214
1683743828534454800,8.840454833984374,-0.4141112267971039,0.05814419686794281,-0.25842851400375366
1683743828544529000,8.85052880859375,-0.3964552879333496,0.06920589506626129,-0.1974887102842331
1683743828554603800,8.860603759765626,-0.3830036520957947,0.07449013739824295,-0.13099730014801025
1683743828564678000,8.870677978515625,-0.37259241938591003,0.05885817110538483,-0.07868064939975739
1683743828574751700,8.880751708984375,-0.34520766139030457,0.027880817651748657,-0.049305714666843414
1683743828584826000,8.890826171875,-0.28956055641174316,0.003890512976795435,-0.03147837519645691
1683743828594900000,8.90089990234375,-0.1971946656703949,-0.010618388652801514,-0.03490426763892174
1683743828604973800,8.910973876953125,-0.09187241643667221,-0.024884924292564392,-0.06421870738267899
1683743828615048000,8.9210478515625,0.008974039927124977,-0.0005585448816418648,-0.06725817173719406
1683743828625121800,8.931121826171875,0.11133594065904617,0.06429475545883179,-0.03970928490161896
1683743828635197000,8.941197021484374,0.1922672688961029,0.15378256142139435,0.002326312242075801
1683743828645270800,8.951270751953125,0.2621581554412842,0.22002418339252472,0.012117058970034122
1683743828655345000,8.961344970703125,0.3443952202796936,0.2549304962158203,-0.006991920992732048
1683743828665418800,8.971418701171874,0.4356476664543152,0.2989501357078552,-0.025404969230294228
1683743828675493000,8.9814931640625,0.5087522864341736,0.3008580207824707,-0.03241441026329994
1683743828685567000,8.99156689453125,0.5526731014251709,0.2296062558889389,-0.03306107968091965
1683743828695640800,9.001640869140624,0.5654296278953552,0.15066109597682953,-0.02098843827843666
1683743828705715000,9.01171484375,0.5621110796928406,0.09135805815458298,-0.011797977611422539
1683743828715788800,9.021788818359376,0.573643684387207,0.03587216138839722,-0.02600807137787342
1683743828725864000,9.031864013671875,0.6082956790924072,0.012941299006342888,-0.07107755541801453
1683743828735937800,9.041937744140625,0.6499528884887695,0.007056777831166983,-0.1178826093673706
1683743828746012000,9.052011962890624,0.6989986300468445,0.0025653494521975517,-0.13938342034816742
1683743828756085800,9.062085693359375,0.7425493001937866,-0.006705114152282476,-0.14014242589473724
1683743828766160100,9.07216015625,0.768855094909668,-0.008503807708621025,-0.1339222490787506
1683743828776234000,9.08223388671875,0.7744652628898621,0.007794472388923168,-0.12531651556491852
1683743828786307800,9.092307861328125,0.7555572390556335,0.012261129915714264,-0.11496548354625702
1683743828796382000,9.1023818359375,0.7166282534599304,0.023533757776021957,-0.108551524579525
1683743828806456800,9.112456787109375,0.662261426448822,0.03917023912072182,-0.09677177667617798
1683743828816531000,9.122531005859376,0.5984011888504028,0.06333816051483154,-0.09217382967472076
1683743828826604800,9.132604736328124,0.5312798023223877,0.10421232879161835,-0.08751550316810608
1683743828836679000,9.142678955078125,0.4701797068119049,0.16194459795951843,-0.08328214287757874
1683743828846752800,9.152752685546876,0.4214135408401489,0.2237829566001892,-0.08637434989213943
1683743828856827100,9.1628271484375,0.3749922513961792,0.27684351801872253,-0.08551707863807678
1683743828866901000,9.17290087890625,0.335588276386261,0.3224219083786011,-0.06605962663888931
1683743828876974800,9.182974853515624,0.29101067781448364,0.34340015053749084,-0.04793043062090874
1683743828887049000,9.193049072265625,0.23834463953971863,0.34328779578208923,-0.04541019722819328
1683743828897123800,9.203123779296876,0.18187418580055237,0.31289875507354736,-0.041095342487096786
1683743828907198000,9.213197998046875,0.1362413763999939,0.27188605070114136,-0.04971901327371597
1683743828917271800,9.223271728515625,0.08974657952785492,0.252860963344574,-0.06353815644979477
1683743828927346000,9.233345947265626,0.03646938130259514,0.22458775341510773,-0.044049222022295
1683743828937419800,9.243419677734375,-0.02267649956047535,0.18809473514556885,-0.0279349647462368
1683743828947494000,9.253493896484375,-0.07313848286867142,0.1848997324705124,-0.029599038884043694
1683743828957568000,9.263568115234374,-0.11151356995105743,0.17858697474002838,-0.042607247829437256
1683743828967641900,9.273641845703125,-0.12385336309671402,0.15569765865802765,-0.06321356445550919
1683743828977717000,9.283717041015626,-0.10043565183877945,0.09271922707557678,-0.09067927300930023
1683743828987790800,9.293790771484375,-0.08514168113470078,-0.025397032499313354,-0.13223709166049957
1683743828997865000,9.303864990234375,-0.11785834282636642,-0.15104150772094727,-0.18975365161895752
1683743829007938800,9.313938720703124,-0.18488836288452148,-0.20025886595249176,-0.2315472513437271
1683743829018013000,9.324012939453125,-0.2587982714176178,-0.17472155392169952,-0.2346237450838089
1683743829028086800,9.334086669921875,-0.3111739754676819,-0.0844172015786171,-0.20519547164440155
1683743829038161000,9.344160888671874,-0.3853400945663452,-0.012393608689308167,-0.16715914011001587
1683743829048235000,9.354235107421875,-0.45768362283706665,0.01033887080848217,-0.14031723141670227
1683743829058308900,9.364308837890626,-0.5227068066596985,-0.016301527619361877,-0.12468208372592926
1683743829068384000,9.374384033203125,-0.5762525796890259,-0.06226477026939392,-0.11265651881694794
1683743829078457900,9.384457763671875,-0.6174423694610596,-0.10359036922454834,-0.13540230691432953
1683743829088532000,9.394531982421874,-0.6298839449882507,-0.12640033662319183,-0.18207138776779175
1683743829098605800,9.404605712890625,-0.6258753538131714,-0.14361713826656342,-0.24717581272125244
1683743829108680000,9.414679931640626,-0.6350700259208679,-0.16456235945224762,-0.3114204406738281
1683743829118753800,9.42475390625,-0.6724078059196472,-0.19264166057109833,-0.37479355931282043
1683743829128828200,9.434828125,-0.7253792881965637,-0.22172418236732483,-0.42795971035957336
1683743829138902000,9.444902099609376,-0.7919479608535767,-0.23951223492622375,-0.4608995318412781
1683743829148975900,9.454975830078125,-0.8702930808067322,-0.22232502698898315,-0.473385214805603
1683743829159051000,9.465051025390625,-0.9591047167778015,-0.17918661236763,-0.48069295287132263
1683743829169124900,9.475124755859374,-1.0646462440490723,-0.10540744662284851,-0.4965980648994446
1683743829179199000,9.485198974609375,-1.1782639026641846,-0.02748148888349533,-0.5195611715316772
1683743829189272800,9.49527294921875,-1.2884501218795776,0.022171033546328545,-0.5237473249435425
1683743829199347000,9.505346923828125,-1.3621549606323242,0.0988309234380722,-0.49433618783950806
1683743829209420800,9.5154208984375,-1.3859190940856934,0.1976105123758316,-0.44851166009902954
1683743829219495200,9.5254951171875,-1.413451910018921,0.26827162504196167,-0.40279504656791687
1683743829229569000,9.535569091796875,-1.4210389852523804,0.33031100034713745,-0.41193804144859314
1683743829239644200,9.54564404296875,-1.3891721963882446,0.32100003957748413,-0.5254102945327759
1683743829249718000,9.555718017578124,-1.2906681299209595,0.1566353589296341,-0.7383162975311279
1683743829259792000,9.5657919921875,-1.0599099397659302,-0.11224749684333801,-0.9575626254081726
1683743829269866000,9.575865966796876,-0.7559031844139099,-0.2983337640762329,-1.0324068069458008
1683743829279939800,9.58593994140625,-0.47057396173477173,-0.35012346506118774,-0.9449141621589661
1683743829290014000,9.596013916015625,-0.2292688488960266,-0.28338199853897095,-0.7849441170692444
1683743829300087800,9.606087890625,-0.05587548017501831,-0.15924698114395142,-0.607147216796875
1683743829310162200,9.616162109375,0.046146925538778305,0.014329355210065842,-0.43005865812301636
1683743829320236000,9.626236083984375,0.11104336380958557,0.17051762342453003,-0.26225900650024414
1683743829330311200,9.636311279296875,0.17752473056316376,0.24308370053768158,-0.10221942514181137
1683743829340385000,9.646385009765625,0.2604079246520996,0.24453219771385193,0.0480627566576004
1683743829350459000,9.656458984375,0.3580966889858246,0.24441127479076385,0.15965037047863007
1683743829360533000,9.666532958984375,0.4001528024673462,0.28506869077682495,0.2137247920036316
1683743829370606800,9.67660693359375,0.3825962245464325,0.42911696434020996,0.223260760307312
1683743829380681000,9.686680908203124,0.36041155457496643,0.6263391971588135,0.25055786967277527
1683743829390754800,9.6967548828125,0.38608428835868835,0.7849166393280029,0.38961145281791687
1683743829400829000,9.706828857421876,0.47006601095199585,0.8464881181716919,0.6087517738342285
1683743829410903000,9.716903076171874,0.5843856930732727,0.7471319437026978,0.8239121437072754
1683743829420978200,9.726978271484375,0.705925464630127,0.484255313873291,0.9599027037620544
1683743829431052000,9.737052001953124,0.8201487064361572,0.12619195878505707,1.045823574066162
1683743829441126000,9.7471259765625,0.9497905969619751,-0.253728449344635,1.0967382192611694
1683743829451200000,9.757199951171875,1.0533818006515503,-0.6337175965309143,1.1091214418411255
1683743829461273900,9.76727392578125,1.0889637470245361,-1.0002018213272095,1.042356252670288
1683743829471348000,9.777347900390625,1.0478551387786865,-1.2620339393615723,0.9142866134643555
1683743829481421800,9.787421875,0.9374988675117493,-1.375510811805725,0.7776975631713867
1683743829491496000,9.797495849609374,0.8016923069953918,-1.440535068511963,0.6927838325500488
1683743829501570000,9.807570068359375,0.6435633897781372,-1.4430631399154663,0.6637462973594666
1683743829511645000,9.81764501953125,0.49959608912467957,-1.2232959270477295,0.6698689460754395
1683743829521719000,9.827718994140625,0.3664567172527313,-0.726396918296814,0.6501594185829163
1683743829531793000,9.83779296875,0.23189827799797058,-0.055108845233917236,0.5343743562698364
1683743829541867000,9.847866943359374,0.06740439683198929,0.571900486946106,0.33786824345588684
1683743829551940900,9.85794091796875,-0.183345228433609,1.0503935813903809,0.07781321555376053
1683743829562015000,9.868014892578126,-0.530820369720459,1.4144428968429565,-0.2343100607395172
1683743829572088800,9.8780888671875,-0.9900967478752136,1.4447845220565796,-0.47095733880996704
1683743829582163000,9.888162841796875,-1.3950644731521606,0.5497065186500549,-0.14435870945453644
1683743829592237000,9.898237060546874,-1.5239300727844238,-0.8130156993865967,0.7334956526756287
1683743829602312000,9.90831201171875,-1.255157709121704,-1.2349061965942383,1.3538278341293335
1683743829612386000,9.918385986328126,-0.8266995549201965,-0.5951659679412842,1.5397529602050781
1683743829622460000,9.9284599609375,-0.37274113297462463,1.0905979871749878,0.9761221408843994
1683743829632534000,9.938533935546875,0.03364838287234306,2.1827211380004883,0.1449161320924759
1683743829642607900,9.94860791015625,0.23110872507095337,1.731760859489441,-0.1681557595729828
1683743829652682000,9.958681884765625,0.2928954064846039,0.682108461856842,-0.08245843648910522
1683743829662755800,9.968755859375,0.4092302620410919,-0.36464378237724304,0.07975338399410248
1683743829672830000,9.978829833984374,0.6295442581176758,-1.2115851640701294,0.2423575073480606
1683743829682904000,9.988904052734375,0.8047957420349121,-1.8184762001037598,0.44613516330718994
1683743829692979000,9.99897900390625,0.856153130531311,-2.163559913635254,0.7056263089179993
1683743829703053000,10.009052978515625,0.8068081736564636,-2.2270500659942627,0.967075765132904
1683743829713127000,10.019126953125,0.7114615440368652,-2.0606164932250977,1.1842989921569824
1683743829723201000,10.029200927734376,0.6280542612075806,-1.753231167793274,1.3050615787506104
1683743829733275000,10.03927490234375,0.6381903290748596,-1.3925813436508179,1.3106557130813599
1683743829743348700,10.0493486328125,0.6659330129623413,-0.9699627161026001,1.2372853755950928
1683743829753422800,10.0594228515625,0.6474580764770508,-0.5338258743286133,1.1091530323028564
1683743829763497000,10.0694970703125,0.5809288620948792,-0.10149791091680527,0.9446976184844971
1683743829773571000,10.079571044921876,0.5358736515045166,0.3344695568084717,0.7323855757713318
1683743829783646000,10.08964599609375,0.5384739637374878,0.6754646897315979,0.48191553354263306
1683743829793720000,10.099719970703125,0.5568258762359619,0.8619186878204346,0.22457320988178253
1683743829803794000,10.1097939453125,0.5413140058517456,0.9302477240562439,-0.0003848099149763584
1683743829813868000,10.119867919921875,0.48145297169685364,0.9010799527168274,-0.16097916662693024
1683743829823942000,10.12994189453125,0.4238030016422272,0.8169653415679932,-0.24743442237377167
1683743829834015700,10.140015625,0.3777633011341095,0.7664627432823181,-0.28103312849998474
1683743829844090000,10.150090087890625,0.34255871176719666,0.8070930242538452,-0.26864996552467346
1683743829854164000,10.1601640625,0.30958518385887146,0.898190438747406,-0.21557201445102692
1683743829864238000,10.170238037109375,0.29238516092300415,0.9981330037117004,-0.13422122597694397
1683743829874313000,10.18031298828125,0.3050444722175598,1.082603931427002,-0.05971876159310341
1683743829884387000,10.190386962890624,0.34210023283958435,1.1547164916992188,-0.028764575719833374
1683743829894461000,10.2004609375,0.3936525285243988,1.200272560119629,-0.06860075891017914
1683743829904535000,10.21053515625,0.4265095293521881,1.1373604536056519,-0.13675743341445923
1683743829914609000,10.22060888671875,0.4239157736301422,0.9513548612594604,-0.1839577853679657
1683743829924682800,10.230682861328125,0.4033527076244354,0.750702977180481,-0.19784191250801086
1683743829934757000,10.240757080078126,0.3999156653881073,0.6108034253120422,-0.17963334918022156
1683743829944831000,10.2508310546875,0.40739089250564575,0.5215693712234497,-0.14742107689380646
1683743829954905000,10.260905029296875,0.412283718585968,0.4662778973579407,-0.11766204237937927
1683743829964980000,10.27097998046875,0.4176926016807556,0.4216039180755615,-0.09003733843564987
1683743829975054000,10.28105419921875,0.42643627524375916,0.4031013250350952,-0.05860702320933342
1683743829985128000,10.2911279296875,0.43508461117744446,0.4258607029914856,-0.04694690555334091
1683743829995202000,10.3012021484375,0.42963817715644836,0.5414080619812012,-0.05010594427585602
1683743830005276000,10.31127587890625,0.4320443570613861,0.7036150693893433,-0.08926773071289062
1683743830015349800,10.321349853515626,0.4503853917121887,0.8301490545272827,-0.16203559935092926
1683743830025424100,10.331424072265625,0.47262120246887207,0.9117368459701538,-0.2631707191467285
1683743830035498000,10.341498046875,0.4771273136138916,0.9386044144630432,-0.3622271716594696
1683743830045572000,10.351572021484374,0.46027883887290955,0.9274221062660217,-0.4299931824207306
1683743830055646000,10.36164599609375,0.43402358889579773,0.8979877829551697,-0.46533915400505066
1683743830065721000,10.37172119140625,0.4327985346317291,0.8880012035369873,-0.49112093448638916
1683743830075795000,10.381794921875,0.45960307121276855,0.909550666809082,-0.5061528086662292
1683743830085868800,10.391868896484375,0.510909378528595,0.9232276082038879,-0.5160693526268005
1683743830095943000,10.40194287109375,0.5667394399642944,0.8901716470718384,-0.5171624422073364
1683743830106016800,10.412016845703125,0.5840159058570862,0.7922581434249878,-0.49256980419158936
1683743830116091600,10.422091552734376,0.5714110136032104,0.6674781441688538,-0.44488629698753357
1683743830126165800,10.432165771484375,0.5396861433982849,0.5170095562934875,-0.35878366231918335
1683743830136239900,10.442239990234375,0.510697066783905,0.3842717111110687,-0.26231062412261963
1683743830146313700,10.452313720703126,0.49117162823677063,0.2736314833164215,-0.14959952235221863
1683743830156388900,10.462388916015625,0.4489915072917938,0.1587264984846115,-0.040671881288290024
1683743830166463000,10.472462890625,0.4026612937450409,-0.014672456309199333,-0.03763028234243393
1683743830176536800,10.482536865234374,0.3599519729614258,-0.09533481299877167,-0.07194315642118454
1683743830186610700,10.492610595703125,0.30849623680114746,-0.0373665876686573,-0.03939187526702881
1683743830196684800,10.502684814453126,0.2506757378578186,0.15520420670509338,0.049276117235422134
1683743830206758700,10.512758544921875,0.199692964553833,0.432996928691864,0.14856915175914764
1683743830216832800,10.522832763671875,0.16014166176319122,0.6450769305229187,0.20638540387153625
1683743830226907000,10.532906982421874,0.1151086613535881,0.7186728715896606,0.22301577031612396
1683743830236980700,10.542980712890625,0.06489488482475281,0.632423460483551,0.1392786055803299
1683743830247054800,10.553054931640625,0.004853652790188789,0.47832420468330383,-0.0025179418735206127
1683743830257129700,10.563129638671874,-0.07434109598398209,0.3624413013458252,-0.14878463745117188
1683743830267203800,10.573203857421875,-0.15712812542915344,0.31563329696655273,-0.2801162898540497
1683743830277277700,10.583277587890626,-0.23741576075553894,0.33192840218544006,-0.40076467394828796
1683743830287351800,10.593351806640625,-0.29071760177612305,0.40744417905807495,-0.5234737992286682
1683743830297425700,10.60342578125,-0.3271208107471466,0.523257315158844,-0.6370937824249268
1683743830307499800,10.613499755859374,-0.3497760593891144,0.6359588503837585,-0.7340131402015686
1683743830317574000,10.623573974609375,-0.3718487620353699,0.7303298115730286,-0.8078262209892273
1683743830327647700,10.633647705078126,-0.40516915917396545,0.7820595502853394,-0.8391194343566895
1683743830337721900,10.643721923828124,-0.4416314661502838,0.7929058074951172,-0.8100325465202332
1683743830347796700,10.653796630859375,-0.4832122027873993,0.8014470934867859,-0.7469156384468079
1683743830357870800,10.663870849609374,-0.5148695707321167,0.839587926864624,-0.6850610375404358
1683743830367944700,10.67394482421875,-0.5314845442771912,0.8698041439056396,-0.7222808003425598
1683743830378018800,10.684018798828125,-0.5409998297691345,0.7740048170089722,-0.9173821806907654
1683743830388092700,10.6940927734375,-0.6130963563919067,0.6153134703636169,-1.1668816804885864
1683743830398166800,10.704166748046875,-0.7237420678138733,0.5320215225219727,-1.3708553314208984
1683743830408241000,10.714240966796876,-0.8309489488601685,0.5667791962623596,-1.528990387916565
1683743830418314800,10.724314697265624,-0.9471535086631775,0.6632735133171082,-1.6681969165802002
1683743830428388900,10.734388916015625,-1.0836230516433716,0.7225704193115234,-1.7986230850219727
1683743830438462700,10.744462646484376,-1.2194772958755493,0.6806434392929077,-1.9151794910430908
1683743830448537900,10.754537841796875,-1.3354605436325073,0.5903910994529724,-1.9718101024627686
1683743830458611700,10.76461181640625,-1.4375818967819214,0.5232346653938293,-1.9731065034866333
1683743830468685800,10.774685791015624,-1.5484280586242676,0.5443668365478516,-1.9412412643432617
1683743830478759700,10.784759765625,-1.645338773727417,0.5983560681343079,-1.8891547918319702
1683743830488833800,10.794833740234376,-1.6695072650909424,0.5055273175239563,-1.8165879249572754
1683743830498908000,10.804907958984375,-1.6134744882583618,0.28184524178504944,-1.6833093166351318
1683743830508981800,10.814981689453125,-1.4704395532608032,0.16005197167396545,-1.4578378200531006
1683743830519056000,10.825055908203124,-1.2751802206039429,0.18858586251735687,-1.1705496311187744
1683743830529129700,10.835129638671875,-1.0776722431182861,0.23178313672542572,-0.8786793947219849
1683743830539203800,10.845203857421875,-0.9166883230209351,0.22089961171150208,-0.6770719885826111
1683743830549278700,10.85527880859375,-0.7836503982543945,0.1513918936252594,-0.6000898480415344
1683743830559352800,10.865352783203125,-0.6542088389396667,0.04829159379005432,-0.57905113697052
1683743830569426700,10.8754267578125,-0.5334954857826233,-0.04865918308496475,-0.5671942234039307
1683743830579500800,10.885500732421875,-0.4589792490005493,-0.14019016921520233,-0.541954517364502
1683743830589575000,10.895574951171875,-0.4122293293476105,-0.19253885746002197,-0.5118522644042969
1683743830599648800,10.905648681640624,-0.370587021112442,-0.19361664354801178,-0.5006112456321716
1683743830609723000,10.915722900390625,-0.32156968116760254,-0.147723987698555,-0.5112780332565308
1683743830619796700,10.925796630859375,-0.3000112473964691,-0.14122745394706726,-0.5159829258918762
1683743830629870800,10.935870849609374,-0.2919730246067047,-0.13529819250106812,-0.5077479481697083
1683743830639944700,10.94594482421875,-0.2985956370830536,-0.07401352375745773,-0.4889613389968872
1683743830650019800,10.956019775390626,-0.3125916123390198,-0.017791002988815308,-0.44824904203414917
1683743830660093700,10.96609375,-0.31900128722190857,0.0022439579479396343,-0.3783916234970093
1683743830670167800,10.976167724609375,-0.33830732107162476,-0.029625825583934784,-0.3167743384838104
1683743830680242000,10.986241943359374,-0.370858758687973,-0.05388110131025314,-0.2734442949295044
1683743830690315800,10.996315673828125,-0.4042891561985016,-0.04092588648200035,-0.26024699211120605
1683743830700390000,11.006389892578126,-0.422556072473526,0.012306975200772285,-0.26810017228126526
1683743830710463700,11.016463623046874,-0.3939902186393738,0.10490721464157104,-0.2865292429924011
1683743830720537900,11.026537841796875,-0.31841543316841125,0.19066418707370758,-0.2877618670463562
1683743830730611700,11.03661181640625,-0.1860739141702652,0.25087109208106995,-0.2699029743671417
1683743830740686800,11.046686767578125,-0.02787047065794468,0.2466672658920288,-0.21925531327724457
1683743830750760700,11.0567607421875,0.12073391675949097,0.15463455021381378,-0.12082460522651672
1683743830760834800,11.066834716796874,0.2470303773880005,0.018595227971673012,-0.004685708787292242
1683743830770909000,11.076908935546875,0.34935781359672546,-0.07857179641723633,0.10852047801017761
1683743830780982800,11.086982666015626,0.43644410371780396,-0.02375674434006214,0.1634354591369629
1683743830791057000,11.097056884765625,0.5127494931221008,0.21103286743164062,0.15098144114017487
1683743830801130800,11.107130859375,0.5560420751571655,0.6098819375038147,0.12164647877216339
1683743830811204600,11.11720458984375,0.5771567225456238,1.0889441967010498,0.046996742486953735
1683743830821278700,11.12727880859375,0.5405988097190857,1.328847050666809,-0.12077271193265915
1683743830831352800,11.137352783203125,0.520337700843811,1.1409729719161987,-0.3064810633659363
1683743830841427700,11.147427734375,0.5570294260978699,0.8014468550682068,-0.39060184359550476
1683743830851501800,11.157501708984375,0.6219226717948914,0.5500697493553162,-0.3776533007621765
1683743830861576000,11.167575927734376,0.6473096013069153,0.38068127632141113,-0.30850422382354736
1683743830871649800,11.17764990234375,0.6244921684265137,0.2859678268432617,-0.2367171347141266
1683743830881724000,11.187723876953125,0.5927404761314392,0.21822205185890198,-0.19354070723056793
1683743830891797800,11.1977978515625,0.5315261483192444,0.14870847761631012,-0.16134601831436157
1683743830901871600,11.20787158203125,0.4735467731952667,0.2493072748184204,-0.1621583104133606
1683743830911945700,11.21794580078125,0.43727293610572815,0.5479695796966553,-0.18257516622543335
1683743830922019800,11.228019775390624,0.38286301493644714,1.0321016311645508,-0.21694715321063995
1683743830932094000,11.238093994140625,0.3671354353427887,1.584695816040039,-0.24249646067619324
1683743830942167800,11.248167724609376,0.400585800409317,1.983008861541748,-0.25460296869277954
1683743830952243000,11.258242919921875,0.4345458745956421,2.15443754196167,-0.2265377938747406
1683743830962316800,11.26831689453125,0.42194780707359314,2.042358875274658,-0.12681405246257782
1683743830972391000,11.278390869140624,0.3380611538887024,1.568708896636963,0.059763818979263306
1683743830982464800,11.28846484375,0.2116357833147049,0.8911839723587036,0.2684175372123718
1683743830992538600,11.29853857421875,0.10867610573768616,0.26693180203437805,0.4661729633808136
1683743831002612700,11.30861279296875,0.09121636301279068,-0.11892642080783844,0.6567421555519104
1683743831012686800,11.318686767578125,0.12270397692918777,-0.27939170598983765,0.8347680568695068
1683743831022761000,11.328760986328126,0.13268466293811798,-0.38999783992767334,0.9886027574539185
1683743831032834800,11.338834716796875,0.1367422640323639,-0.6080217361450195,1.1181026697158813
1683743831042908700,11.34890869140625,0.1645098775625229,-0.927606463432312,1.2134860754013062
1683743831052983800,11.35898388671875,0.23101726174354553,-1.1971490383148193,1.2383304834365845
1683743831063058000,11.369057861328125,0.3097643554210663,-1.3133411407470703,1.135148048400879
1683743831073131800,11.3791318359375,0.3343285620212555,-1.3825657367706299,0.7072030901908875
1683743831083205600,11.38920556640625,0.24372419714927673,-1.196042776107788,0.1264744997024536
1683743831093279700,11.39927978515625,0.10191857814788818,-0.5192181468009949,-0.2707817852497101
1683743831103353900,11.409353759765626,-0.002230478450655937,0.37477412819862366,-0.4019717574119568
1683743831113428000,11.419427978515625,-0.042957667261362076,1.1477749347686768,-0.33869612216949463
1683743831123501800,11.429501708984375,-0.050178930163383484,1.5184211730957031,-0.2272259145975113
1683743831133575700,11.43957568359375,-0.027921296656131744,1.4148367643356323,-0.16356010735034943
1683743831143649800,11.44964990234375,0.02353208139538765,0.971099853515625,-0.18459823727607727
1683743831153724700,11.459724609375,0.1045108214020729,0.39959025382995605,-0.25421008467674255
1683743831163798800,11.469798828125,0.186203271150589,-0.0091383783146739,-0.34693047404289246
1683743831173872600,11.47987255859375,0.22802181541919708,-0.05440625548362732,-0.43474769592285156
1683743831183946800,11.48994677734375,0.25250428915023804,0.22374919056892395,-0.5211567878723145
1683743831194020900,11.500020751953125,0.29383257031440735,0.6356973052024841,-0.5922810435295105
1683743831204095000,11.510094970703125,0.34766635298728943,0.9691666960716248,-0.6692950129508972
1683743831214168800,11.5201689453125,0.36414653062820435,1.0613253116607666,-0.7320705056190491
1683743831224242700,11.53024267578125,0.35266223549842834,0.8750558495521545,-0.7657538056373596
1683743831234316800,11.54031689453125,0.3501620590686798,0.5254999399185181,-0.7426977157592773
1683743831244390700,11.550390625,0.34552523493766785,0.18955419957637787,-0.633924126625061
1683743831254465800,11.5604658203125,0.32048219442367554,0.00945207104086876,-0.4247104823589325
1683743831264539600,11.57053955078125,0.2636730670928955,0.03101622499525547,-0.15920819342136383
1683743831274613800,11.58061376953125,0.185750812292099,0.22908402979373932,0.10655104368925095
1683743831284688000,11.59068798828125,0.09036704152822495,0.5086131691932678,0.30995476245880127
1683743831294762000,11.600761962890624,0.0030744774267077446,0.7778792381286621,0.43014588952064514
1683743831304835800,11.6108359375,-0.07436130940914154,1.0249792337417603,0.4565403163433075
1683743831314909700,11.62090966796875,-0.14597797393798828,1.246587872505188,0.38831067085266113
1683743831324983800,11.63098388671875,-0.22099874913692474,1.4563632011413574,0.1979328989982605
1683743831335057700,11.6410576171875,-0.3030630052089691,1.536512017250061,-0.07736817747354507
1683743831345131800,11.6511318359375,-0.3590637743473053,1.4716811180114746,-0.38974347710609436
1683743831355206000,11.661205810546875,-0.3798702657222748,1.3442907333374023,-0.6651143431663513
1683743831365280800,11.67128076171875,-0.36342817544937134,1.2799761295318604,-0.8574092388153076
1683743831375355000,11.68135498046875,-0.3331834375858307,1.3889681100845337,-0.9667764902114868
1683743831385428700,11.6914287109375,-0.29354673624038696,1.6048178672790527,-1.0356868505477905
1683743831395502800,11.7015029296875,-0.2687162160873413,1.789781093597412,-1.090872883796692
1683743831405576700,11.71157666015625,-0.24026885628700256,1.8792582750320435,-1.1665160655975342
1683743831415650800,11.72165087890625,-0.20867390930652618,1.8653115034103394,-1.2646746635437012
1683743831425724700,11.731724609375,-0.15233871340751648,1.7281653881072998,-1.3496718406677246
1683743831435798800,11.741798828125,-0.07252883911132812,1.5092064142227173,-1.390835165977478
1683743831445873000,11.751872802734376,0.018003420904278755,1.3495898246765137,-1.3737059831619263
1683743831455946800,11.76194677734375,0.0973493754863739,1.2872710227966309,-1.306317925453186
1683743831466022000,11.77202197265625,0.1645575314760208,1.2963982820510864,-1.2095767259597778
1683743831476095700,11.782095703125,0.20898544788360596,1.3436819314956665,-1.110957384109497
1683743831486169900,11.792169921875,0.23241592943668365,1.422417402267456,-1.0186642408370972
1683743831496243700,11.80224365234375,0.24161022901535034,1.5236178636550903,-0.9567960500717163
1683743831506317800,11.81231787109375,0.22658385336399078,1.6121532917022705,-0.9220900535583496
1683743831516391700,11.8223916015625,0.18901756405830383,1.6782065629959106,-0.9183738827705383
1683743831526465800,11.8324658203125,0.14089983701705933,1.7249109745025635,-0.9252413511276245
1683743831536540000,11.842539794921874,0.08205410838127136,1.7763001918792725,-0.9334475994110107
1683743831546613800,11.85261376953125,0.020357368513941765,1.8677011728286743,-0.9206712245941162
1683743831556688000,11.86268798828125,-0.02828500233590603,1.954384446144104,-0.9015688896179199
1683743831566761700,11.87276171875,-0.04999660700559616,2.003910541534424,-0.8877821564674377
1683743831576836900,11.8828369140625,-0.04801175370812416,1.9805123805999756,-0.8861815929412842
1683743831586910700,11.89291064453125,-0.03887084126472473,1.8796018362045288,-0.8940049409866333
1683743831596984800,11.90298486328125,-0.028611546382308006,1.7177952527999878,-0.8987120985984802
1683743831607058700,11.91305859375,-0.030509868636727333,1.5340441465377808,-0.883683443069458
1683743831617132800,11.9231328125,-0.02362719550728798,1.3617216348648071,-0.834298312664032
1683743831627207000,11.93320703125,-0.012488134205341339,1.2358124256134033,-0.7651236057281494
1683743831637280800,11.94328076171875,-0.024965044111013412,1.1713436841964722,-0.7079346179962158
1683743831647355000,11.95335498046875,-0.06828784942626953,1.186536431312561,-0.6989686489105225
1683743831657428700,11.9634287109375,-0.13026653230190277,1.241747498512268,-0.7273384928703308
1683743831667502800,11.9735029296875,-0.1856393665075302,1.3177461624145508,-0.7923146486282349
1683743831677576700,11.98357666015625,-0.2262246161699295,1.4080302715301514,-0.8844166398048401
1683743831687651800,11.99365185546875,-0.25779083371162415,1.5074706077575684,-0.98079514503479
1683743831697725700,12.0037255859375,-0.2960119843482971,1.588346004486084,-1.0623102188110352
1683743831707799600,12.013799560546875,-0.32363542914390564,1.635199785232544,-1.1169778108596802
1683743831717874000,12.0238740234375,-0.3372289836406708,1.6514668464660645,-1.1383517980575562
1683743831727947800,12.03394775390625,-0.3461194932460785,1.633702278137207,-1.131679892539978
1683743831738022000,12.04402197265625,-0.3666045367717743,1.5427539348602295,-1.1233940124511719
1683743831748095700,12.054095703125,-0.4093190133571625,1.382201075553894,-1.1173568964004517
1683743831758169900,12.064169921875,-0.47958385944366455,1.1494653224945068,-1.127993106842041
1683743831768243700,12.07424365234375,-0.5792145133018494,0.8849995732307434,-1.1487500667572021
1683743831778317600,12.084317626953125,-0.7015933990478516,0.676415205001831,-1.1806975603103638
1683743831788392000,12.094391845703125,-0.8500943779945374,0.5472644567489624,-1.2286324501037598
1683743831798466600,12.104466552734374,-1.01465904712677,0.5303283333778381,-1.2989763021469116
1683743831808541000,12.114541015625,-1.170486569404602,0.6405094265937805,-1.414355993270874
1683743831818614800,12.12461474609375,-1.3018715381622314,0.8333065509796143,-1.5784049034118652
1683743831828689000,12.13468896484375,-1.4112801551818848,1.0405219793319702,-1.7947725057601929
1683743831838762800,12.1447626953125,-1.5125566720962524,1.2025777101516724,-2.094705581665039
1683743831848836900,12.1548369140625,-1.614569902420044,1.2585965394973755,-2.458543062210083
1683743831858910700,12.16491064453125,-1.6888635158538818,1.1827620267868042,-2.7996437549591064
1683743831868984600,12.174984619140625,-1.701676368713379,1.0693589448928833,-3.049283266067505
1683743831879059000,12.185058837890624,-1.6372456550598145,1.0023858547210693,-3.157285451889038
1683743831889132800,12.1951328125,-1.4984599351882935,0.9797820448875427,-3.135636568069458
1683743831899207000,12.20520703125,-1.3153910636901855,0.9815237522125244,-3.0323150157928467
1683743831909281800,12.21528173828125,-1.0957846641540527,0.9906796813011169,-2.899235248565674
1683743831919356000,12.22535595703125,-0.904479444026947,1.0129971504211426,-2.793689250946045
1683743831929429800,12.2354296875,-0.7536131739616394,1.0800918340682983,-2.7230231761932373
1683743831939503600,12.245503662109375,-0.6212636828422546,1.1962183713912964,-2.648440361022949
1683743831949577700,12.25557763671875,-0.5512452125549316,1.2118815183639526,-2.4998698234558105
1683743831959651600,12.265651611328124,-0.5051069855690002,1.1130585670471191,-2.291289806365967
1683743831969726000,12.275725830078125,-0.46019482612609863,0.9669783711433411,-2.061816930770874
1683743831979799800,12.2857998046875,-0.3815714120864868,0.8723865747451782,-1.8618744611740112
1683743831989874000,12.2958740234375,-0.2819417119026184,0.8091421127319336,-1.7052600383758545
1683743831999947800,12.30594775390625,-0.19642947614192963,0.6786274909973145,-1.5685477256774902
1683743832010021600,12.316021728515626,-0.13357412815093994,0.4812241196632385,-1.4579734802246094
1683743832020096800,12.3260966796875,-0.10784372687339783,0.2835720479488373,-1.345922827720642
1683743832030170600,12.336170654296875,-0.11729489266872406,0.19648481905460358,-1.2416054010391235
1683743832040244700,12.34624462890625,-0.17076903581619263,0.25484028458595276,-1.1555176973342896
1683743832050318600,12.356318603515625,-0.2612474858760834,0.4206622540950775,-1.1153440475463867
1683743832060393000,12.36639306640625,-0.3567095696926117,0.5929986238479614,-1.1329741477966309
1683743832070466800,12.376466796875,-0.3912491798400879,0.6722196936607361,-1.1668843030929565
1683743832080541000,12.386541015625,-0.330797016620636,0.6016826629638672,-1.1446338891983032
1683743832090614800,12.39661474609375,-0.24066707491874695,0.4285455048084259,-1.0128265619277954
1683743832100688600,12.406688720703125,-0.14297834038734436,0.185171976685524,-0.7746104598045349
1683743832110762800,12.4167626953125,-0.033095818012952805,-0.10613442957401276,-0.490246444940567
1683743832120836400,12.42683642578125,0.07732336968183517,-0.4042859375476837,-0.24796828627586365
1683743832130911200,12.4369111328125,0.19190317392349243,-0.6273254156112671,-0.09408015757799149
1683743832140985300,12.4469853515625,0.29079166054725647,-0.7039232850074768,-0.031606655567884445
1683743832151059200,12.45705908203125,0.3577103614807129,-0.6369173526763916,-0.01649581827223301
1683743832161133000,12.467133056640625,0.3958319127559662,-0.4519059360027313,-0.025250161066651344
1683743832171207200,12.477207275390626,0.41643404960632324,-0.18634963035583496,-0.04741714149713516
1683743832181281000,12.487281005859375,0.4201270341873169,0.11028123646974564,-0.08493655920028687
1683743832191355100,12.497355224609375,0.4202117323875427,0.403585821390152,-0.13761387765407562
1683743832201429200,12.50742919921875,0.41723644733428955,0.675967812538147,-0.1980804204940796
1683743832211503400,12.51750341796875,0.4760323166847229,0.7959166169166565,-0.2336818277835846
1683743832221577200,12.5275771484375,0.6045543551445007,0.7980215549468994,-0.251320481300354
1683743832231651000,12.537651123046874,0.6784898042678833,0.8124234080314636,-0.2636738121509552
