time,seconds_elapsed,z,y,x
1683752229489939200,0.029939208984375,-0.015449362806975842,-0.1936258226633072,-0.19782468676567078
1683752229500015000,0.04001513671875,-0.02514236979186535,-0.17799118161201477,-0.1416700929403305
1683752229510090200,0.05009033203125,-0.03905259445309639,-0.20166800916194916,-0.08982740342617035
1683752229520165000,0.0601650390625,-0.034670356661081314,-0.2711547017097473,-0.06203509494662285
1683752229530240000,0.070239990234375,-0.02147546038031578,-0.3433426022529602,-0.07468564063310623
1683752229540315100,0.080315185546875,0.023104310035705566,-0.41761869192123413,-0.12234847247600555
1683752229550390000,0.09039013671875,0.045550499111413956,-0.5274434685707092,-0.17147499322891235
1683752229560465200,0.100465087890625,0.06434427201747894,-0.6592044234275818,-0.15661883354187012
1683752229570540300,0.110540283203125,0.09206458181142807,-0.7707924842834473,-0.08321891725063324
1683752229580615200,0.120615234375,0.11990207433700562,-0.8205589652061462,0.0003505441709421575
1683752229590691000,0.130691162109375,0.1767997145652771,-0.8156390190124512,0.10264255851507187
1683752229600766200,0.14076611328125,0.2295893132686615,-0.7494981288909912,0.14610137045383453
1683752229610841000,0.150841064453125,0.2478865683078766,-0.6062645316123962,0.13013865053653717
1683752229620916200,0.160916259765625,0.20593075454235077,-0.5041977763175964,0.0771889016032219
1683752229630991000,0.1709912109375,0.13064877688884735,-0.47238340973854065,0.018930921331048012
1683752229641066000,0.18106591796875,0.04232653230428696,-0.5019711256027222,-0.02722129225730896
1683752229651141000,0.19114111328125,0.010611746460199356,-0.5313892364501953,-0.059860192239284515
1683752229661216000,0.201216064453125,0.020370200276374817,-0.46489274501800537,-0.10893109440803528
1683752229671292200,0.211292236328125,0.03189263492822647,-0.3313746154308319,-0.17693811655044556
1683752229681367000,0.221366943359375,0.06253305822610855,-0.14337968826293945,-0.22975829243659973
1683752229691442000,0.23144189453125,0.07239287346601486,0.09672211855649948,-0.24534550309181213
1683752229701517000,0.24151708984375,0.08406160771846771,0.291215181350708,-0.218910813331604
1683752229711592200,0.25159228515625,0.12217038124799728,0.3449724018573761,-0.14786140620708466
1683752229721667000,0.2616669921875,0.17854338884353638,0.04676816239953041,-0.0842566043138504
1683752229731742200,0.2717421875,0.2663310170173645,-0.3508561849594116,0.0026077183429151773
1683752229741817000,0.281817138671875,0.3962366282939911,-0.5914480090141296,0.09275621175765991
1683752229751892000,0.29189208984375,0.5279302000999451,-0.6908060312271118,0.12885615229606628
1683752229761968000,0.301968017578125,0.6513292193412781,-0.580146074295044,0.12114603072404861
1683752229772043000,0.31204296875,0.7711243033409119,-0.31584998965263367,0.0768217071890831
1683752229782118100,0.3221181640625,0.8794816136360168,-0.000630243681371212,-0.004981423262506723
1683752229792193300,0.332193359375,0.9845728874206543,0.28074631094932556,-0.09420956671237946
1683752229802268000,0.342267822265625,1.0675067901611328,0.3926376700401306,-0.14065124094486237
1683752229812342500,0.352342529296875,1.1047990322113037,0.36026349663734436,-0.07039838284254074
1683752229822417700,0.362417724609375,1.0753406286239624,0.2887358069419861,0.08590830117464066
1683752229832492800,0.372492919921875,0.9899671673774719,0.18796789646148682,0.23342692852020264
1683752229842568700,0.382568603515625,0.9072588682174683,0.09923696517944336,0.3488357365131378
1683752229852643800,0.392643798828125,0.7807664275169373,0.017127979546785355,0.40339699387550354
1683752229862718700,0.40271875,0.5718458294868469,0.08365052938461304,0.3984930217266083
1683752229872793600,0.412793701171875,0.24270601570606232,0.23955971002578735,0.3627885580062866
1683752229882868700,0.42286865234375,-0.22575174272060394,0.3329397141933441,0.30720412731170654
1683752229892943600,0.432943603515625,-0.5770344138145447,0.2707458436489105,0.2672548294067383
1683752229903018800,0.443018798828125,-0.5472946166992188,0.06224379315972328,0.21717151999473572
1683752229913094000,0.453093994140625,-0.38554647564888,-0.20424088835716248,0.16077642142772675
1683752229923168800,0.463168701171875,-0.1876870095729828,-0.5093494057655334,0.10917876660823822
1683752229933244700,0.47324462890625,0.02805645763874054,-0.787329375743866,0.07663200795650482
1683752229943319800,0.48331982421875,0.21972937881946564,-0.9023435711860657,0.047778625041246414
1683752229953394700,0.493394775390625,0.27670931816101074,-0.8195485472679138,0.0583987794816494
1683752229963469800,0.5034697265625,0.22635392844676971,-0.6295080780982971,0.12698569893836975
1683752229973545000,0.513544921875,0.1520671844482422,-0.40929630398750305,0.2530112862586975
1683752229983619600,0.52361962890625,0.12736205756664276,-0.31821301579475403,0.419952929019928
1683752229993694700,0.53369482421875,0.178191676735878,-0.2953772246837616,0.5796837210655212
1683752230003769600,0.54376953125,0.29712432622909546,-0.23449496924877167,0.692870020866394
1683752230013845800,0.553845703125,0.48933130502700806,-0.07389196753501892,0.7469625473022461
1683752230023921000,0.5639208984375,0.6307052969932556,0.16738270223140717,0.7568873763084412
1683752230033995500,0.57399560546875,0.7454366683959961,0.5206454396247864,0.7308717370033264
1683752230044070700,0.584070556640625,0.8947619199752808,0.7443861365318298,0.6999596357345581
1683752230054145800,0.594145751953125,0.9889768362045288,0.9320590496063232,0.7091187834739685
1683752230064220700,0.604220703125,0.9462224841117859,1.0301238298416138,0.8113890886306763
1683752230074295800,0.6142958984375,0.8337106108665466,1.0278351306915283,0.9641599655151367
1683752230084370700,0.62437060546875,0.751676082611084,1.0025173425674438,1.0995614528656006
1683752230094446600,0.634446533203125,0.6839370131492615,1.0222257375717163,1.1610088348388672
1683752230104521700,0.644521728515625,0.6762165427207947,1.0533570051193237,1.130832314491272
1683752230114596600,0.6545966796875,0.769607424736023,1.111321210861206,1.02689528465271
1683752230124671700,0.664671630859375,0.8955946564674377,1.13543701171875,0.87339848279953
1683752230134747000,0.674746826171875,0.9828488826751709,1.2165405750274658,0.7175987362861633
1683752230144821800,0.68482177734375,1.1220155954360962,1.342655897140503,0.5777557492256165
1683752230154896600,0.694896728515625,1.2382516860961914,1.4690865278244019,0.47331804037094116
1683752230164971800,0.7049716796875,1.2898621559143066,1.5716667175292969,0.3969360291957855
1683752230175047700,0.715047607421875,1.1397755146026611,1.2074333429336548,0.17693094909191132
1683752230185122800,0.725122802734375,0.8775657415390015,1.2360152006149292,-0.06404270231723785
1683752230195197700,0.73519775390625,0.4640878736972809,1.3412971496582031,-0.2115381509065628
1683752230205272600,0.7452724609375,0.052334848791360855,1.2402843236923218,-0.313453733921051
1683752230215347700,0.75534765625,-0.1891787052154541,0.9898353219032288,-0.3755653202533722
1683752230225422600,0.765422607421875,-0.2270820438861847,0.7417415976524353,-0.3750516176223755
1683752230235497700,0.775497802734375,-0.10095074772834778,0.6004358530044556,-0.2987387180328369
1683752230245572900,0.78557275390625,0.04420890659093857,0.5746293067932129,-0.14699159562587738
1683752230255647700,0.795647705078125,0.13533028960227966,0.5911757946014404,0.03685067221522331
1683752230265723600,0.8057236328125,0.13035565614700317,0.6318100094795227,0.1630500704050064
1683752230275798800,0.815798828125,0.0324900783598423,0.6926957368850708,0.22765915095806122
1683752230285873700,0.825873779296875,-0.08307596296072006,0.6355427503585815,0.2639961838722229
1683752230295948800,0.83594873046875,-0.18741755187511444,0.5375021696090698,0.2825475037097931
1683752230306024000,0.84602392578125,-0.24869103729724884,0.4197997748851776,0.2676869034767151
1683752230316098800,0.856098876953125,-0.23884452879428864,0.3570935130119324,0.22340597212314606
1683752230326173700,0.866173583984375,-0.18509486317634583,0.41243669390678406,0.14685074985027313
1683752230336248600,0.87624853515625,-0.08191148936748505,0.6172183156013489,0.023647058755159378
1683752230346324700,0.88632470703125,0.10026928782463074,0.8636326193809509,-0.10330596566200256
1683752230356399900,0.89639990234375,0.2658425271511078,1.0322293043136597,-0.22494372725486755
1683752230366474800,0.906474853515625,0.4275377690792084,1.148375391960144,-0.3038058280944824
1683752230376549600,0.916549560546875,0.5664929747581482,1.19171941280365,-0.3345333933830261
1683752230386624800,0.926624755859375,0.6126859188079834,1.1893502473831177,-0.3450363278388977
1683752230396699600,0.93669970703125,0.5666018128395081,1.164603590965271,-0.34222936630249023
1683752230406774800,0.94677490234375,0.47321617603302,1.1023362874984741,-0.33722323179244995
1683752230416849700,0.956849609375,0.3676159977912903,1.027113914489746,-0.3377090096473694
1683752230426924800,0.9669248046875,0.31639596819877625,0.9621890187263489,-0.35806190967559814
1683752230437000700,0.977000732421875,0.3349938690662384,0.8334504961967468,-0.37252262234687805
1683752230447075600,0.98707568359375,0.38701221346855164,0.5672672390937805,-0.38286522030830383
1683752230457150700,0.997150634765625,0.4181717038154602,0.2805825471878052,-0.40180373191833496
1683752230467225900,1.007225830078125,0.39195141196250916,0.050680890679359436,-0.4359334111213684
1683752230477300700,1.01730078125,0.32536280155181885,-0.10739050060510635,-0.48095467686653137
1683752230487375600,1.027375732421875,0.24424275755882263,-0.1909370869398117,-0.5153633952140808
1683752230497450800,1.03745068359375,0.1824963092803955,-0.2259557992219925,-0.5315378904342651
1683752230507525600,1.047525634765625,0.15245015919208527,-0.24531401693820953,-0.5373186469078064
1683752230517601800,1.057601806640625,0.1704896092414856,-0.2526380121707916,-0.5543996691703796
1683752230527677000,1.067677001953125,0.27485722303390503,-0.2948805093765259,-0.5705927014350891
1683752230537751600,1.07775146484375,0.39036038517951965,-0.4058397710323334,-0.5913437604904175
1683752230547826700,1.08782666015625,0.49778836965560913,-0.4042496383190155,-0.6521185040473938
1683752230557901600,1.097901611328125,0.6067260503768921,-0.2878156900405884,-0.7154239416122437
1683752230567976700,1.107976806640625,0.6638312339782715,-0.11235518008470535,-0.7327962517738342
1683752230578051800,1.1180517578125,0.6605212092399597,0.12112681567668915,-0.6955516338348389
1683752230588126700,1.128126708984375,0.6257901787757874,0.35998281836509705,-0.6175639033317566
1683752230598202600,1.13820263671875,0.5835806727409363,0.5502038598060608,-0.5224344730377197
1683752230608277800,1.14827783203125,0.5470893979072571,0.6849459409713745,-0.45028167963027954
1683752230618352600,1.1583525390625,0.5134235620498657,0.745718777179718,-0.42303648591041565
1683752230628427800,1.168427734375,0.4443776607513428,0.7502466440200806,-0.4196508824825287
1683752230638503000,1.1785029296875,0.3485296964645386,0.6654103398323059,-0.4176977276802063
1683752230648577800,1.188577880859375,0.2437957227230072,0.5485601425170898,-0.42418721318244934
1683752230658652700,1.198652587890625,0.1821640580892563,0.4943203926086426,-0.43853604793548584
1683752230668727600,1.2087275390625,0.16070210933685303,0.5030304789543152,-0.4258379638195038
1683752230678803700,1.2188037109375,0.1412874013185501,0.5358832478523254,-0.3760797381401062
1683752230688878800,1.22887890625,0.1130928248167038,0.5829319953918457,-0.31278038024902344
1683752230698953700,1.23895361328125,0.08426038175821304,0.6217312812805176,-0.26450419425964355
1683752230709028600,1.249028564453125,0.07543562352657318,0.6022281646728516,-0.27220210433006287
1683752230719103700,1.259103759765625,0.08002185821533203,0.5081301927566528,-0.3389182984828949
1683752230729178600,1.2691787109375,0.07214219868183136,0.4024873971939087,-0.46131426095962524
1683752230739253800,1.279253662109375,0.06520892679691315,0.37716713547706604,-0.6191973686218262
1683752230749328600,1.28932861328125,0.07531216740608215,0.3879747688770294,-0.7381775975227356
1683752230759403800,1.29940380859375,0.07309987396001816,0.35918280482292175,-0.7804363965988159
1683752230769479700,1.309479736328125,0.04409576579928398,0.30448681116104126,-0.7633364200592041
1683752230779554600,1.319554443359375,0.0020580331329256296,0.25329285860061646,-0.7082542777061462
1683752230789629700,1.329629638671875,-0.047392502427101135,0.18466798961162567,-0.6237156391143799
1683752230799704800,1.339704833984375,-0.08388900011777878,0.1157059594988823,-0.5532510876655579
1683752230809780200,1.3497802734375,-0.10889836400747299,0.047642748802900314,-0.5339392423629761
1683752230819855000,1.359855224609375,-0.11794964969158173,0.005414334591478109,-0.5585247874259949
1683752230829930000,1.369929931640625,-0.11076879501342773,0.010790172964334488,-0.5980262160301208
1683752230840005000,1.380005126953125,-0.09836485981941223,0.05628788098692894,-0.6076093316078186
1683752230850081300,1.390081298828125,-0.10125919431447983,0.10552176833152771,-0.5628739595413208
1683752230860156200,1.40015625,-0.12329418957233429,0.15494391322135925,-0.46456149220466614
1683752230870231000,1.41023095703125,-0.16227509081363678,0.18642407655715942,-0.3490114212036133
1683752230880306000,1.420305908203125,-0.19365698099136353,0.21699929237365723,-0.25829485058784485
1683752230890381000,1.430381103515625,-0.22371862828731537,0.2389804869890213,-0.19629432260990143
1683752230900456200,1.440456298828125,-0.2477099895477295,0.25225287675857544,-0.14913666248321533
1683752230910531000,1.450531005859375,-0.2690865993499756,0.2192389816045761,-0.10483705252408981
1683752230920606200,1.460606201171875,-0.2884179353713989,0.15590181946754456,-0.05668417736887932
1683752230930682000,1.47068212890625,-0.28739556670188904,0.09578151255846024,-0.027330739423632622
1683752230940757000,1.480757080078125,-0.25915566086769104,0.07892263680696487,-0.023815101012587547
1683752230950832000,1.49083203125,-0.21912330389022827,0.07470820099115372,-0.021908201277256012
1683752230960907000,1.500906982421875,-0.1687498837709427,0.07306715846061707,-0.010793766006827354
1683752230970982100,1.510982177734375,-0.12006041407585144,0.09345603734254837,0.007261558435857296
1683752230981057300,1.521057373046875,-0.07316028326749802,0.13632547855377197,0.04599403962492943
1683752230991132000,1.5311318359375,-0.03876928985118866,0.20114867389202118,0.08915846049785614
1683752231001207000,1.54120703125,-0.0027982410974800587,0.27034321427345276,0.13414883613586426
1683752231011283200,1.551283203125,0.027984531596302986,0.34518417716026306,0.16876846551895142
1683752231021358000,1.561358154296875,0.03455215319991112,0.38992607593536377,0.19983983039855957
1683752231031433200,1.57143310546875,0.01420182827860117,0.4048711955547333,0.19535833597183228
1683752231041508000,1.581508056640625,-0.014415968209505081,0.3956521451473236,0.1465737521648407
1683752231051583000,1.5915830078125,-0.04397998005151749,0.3676433861255646,0.07251080870628357
1683752231061658000,1.601658203125,-0.06642217189073563,0.32645201683044434,0.001690962933935225
1683752231071733000,1.61173291015625,-0.06508898735046387,0.296784371137619,-0.060392726212739944
1683752231081808100,1.62180810546875,-0.032267119735479355,0.2871096432209015,-0.10012761503458023
1683752231091884000,1.631884033203125,0.006515318527817726,0.27982297539711,-0.10152381658554077
1683752231101959000,1.641958984375,0.03764554113149643,0.28356045484542847,-0.08687908947467804
1683752231112034000,1.652033935546875,0.05179033800959587,0.28689447045326233,-0.05550841614603996
1683752231122109200,1.662109130859375,0.04667839780449867,0.2794940769672394,-0.03424840047955513
1683752231132184000,1.67218408203125,0.03386782109737396,0.2771252393722534,-0.04762483760714531
1683752231142259200,1.68225927734375,0.020753884688019753,0.26593226194381714,-0.09362748265266418
1683752231152334300,1.692334228515625,0.013440540060400963,0.2589864134788513,-0.1319032460451126
1683752231162409000,1.702408935546875,0.01258220337331295,0.240309938788414,-0.12258564680814743
1683752231172485000,1.712485107421875,0.015988068655133247,0.20162513852119446,-0.058320675045251846
1683752231182560300,1.722560302734375,0.015900449827313423,0.15131109952926636,0.031582582741975784
1683752231192635100,1.73263525390625,0.020166577771306038,0.09813147783279419,0.1162547841668129
1683752231202710300,1.742710205078125,0.020368443801999092,0.06392903625965118,0.17684011161327362
1683752231212785000,1.752784912109375,0.027975697070360184,0.05329771339893341,0.19649258255958557
1683752231222860000,1.762860107421875,0.03826215863227844,0.04193853586912155,0.2032354325056076
1683752231232935200,1.77293505859375,0.046600084751844406,0.034978631883859634,0.2315523624420166
1683752231243010000,1.783010009765625,0.06862523406744003,0.03749292343854904,0.29917001724243164
1683752231253086200,1.793086181640625,0.08770997077226639,0.052994124591350555,0.395699143409729
1683752231263161000,1.8031611328125,0.08801623433828354,0.06436768919229507,0.4832952916622162
1683752231273236000,1.813236083984375,0.0654686689376831,0.0820351243019104,0.5415951013565063
1683752231283311000,1.82331103515625,0.03756113722920418,0.08842591196298599,0.5630964040756226
1683752231293386000,1.833385986328125,0.00777806993573904,0.07252760231494904,0.5472551584243774
1683752231303461000,1.843461181640625,-0.024195309728384018,0.04902174696326256,0.5221601724624634
1683752231313536300,1.853536376953125,-0.04940260946750641,0.026813380420207977,0.4900909662246704
1683752231323611100,1.863611083984375,-0.07160378247499466,0.01061683427542448,0.46884241700172424
1683752231333687000,1.87368701171875,-0.08324766904115677,0.007324917241930962,0.4615108072757721
1683752231343762200,1.88376220703125,-0.09174714237451553,0.02007187157869339,0.472574919462204
1683752231353837000,1.893837158203125,-0.10296084731817245,0.0424003079533577,0.500708818435669
1683752231363912200,1.903912109375,-0.10605970025062561,0.08700959384441376,0.53523188829422
1683752231373987000,1.913987060546875,-0.0893811285495758,0.13232143223285675,0.5808078646659851
1683752231384062000,1.92406201171875,-0.06699326634407043,0.15567654371261597,0.6254110336303711
1683752231394137000,1.93413720703125,-0.03775666281580925,0.1496088206768036,0.6553141474723816
1683752231404213200,1.944213134765625,-0.01754833199083805,0.11262708902359009,0.6769155859947205
1683752231414288100,1.9542880859375,-0.015743976458907127,0.05917637422680855,0.6938282251358032
1683752231424363300,1.96436328125,-0.02431136555969715,0.014558571390807629,0.6956279873847961
1683752231434438000,1.97443798828125,-0.03661862760782242,-0.024332910776138306,0.6819937825202942
1683752231444513000,1.984512939453125,-0.06117590144276619,-0.04341445863246918,0.6603633165359497
1683752231454588200,1.994588134765625,-0.08800274133682251,-0.03690166771411896,0.6306254863739014
1683752231464663000,2.0046630859375,-0.10351672023534775,-0.009193073958158493,0.6003022193908691
1683752231474738200,2.01473828125,-0.10521084815263748,0.03473121300339699,0.5915611982345581
1683752231484814000,2.02481396484375,-0.0951094776391983,0.06404250115156174,0.609575629234314
1683752231494889000,2.034888916015625,-0.08306891471147537,0.10813196003437042,0.6367766857147217
1683752231504964000,2.044964111328125,-0.07288472354412079,0.16822297871112823,0.6535937190055847
1683752231515039200,2.055039306640625,-0.06891794502735138,0.21961826086044312,0.655442476272583
1683752231525114000,2.065114013671875,-0.07394013553857803,0.269756019115448,0.6329143047332764
1683752231535189200,2.075189208984375,-0.09525547921657562,0.3346564471721649,0.5898045301437378
1683752231545264000,2.08526416015625,-0.11998266726732254,0.41419148445129395,0.5253086090087891
1683752231555339000,2.095339111328125,-0.1380266398191452,0.4766383171081543,0.4338268041610718
1683752231565415200,2.105415283203125,-0.14510399103164673,0.5106884241104126,0.2952348291873932
1683752231575490000,2.115489990234375,-0.1377636343240738,0.5392798781394958,0.13528938591480255
1683752231585565200,2.125565185546875,-0.11467189341783524,0.5510417222976685,-0.016588298603892326
1683752231595640000,2.13564013671875,-0.08090982586145401,0.5210340619087219,-0.1278637945652008
1683752231605715000,2.14571484375,-0.028124647215008736,0.4657694399356842,-0.20217743515968323
1683752231615790000,2.1557900390625,0.023980528116226196,0.4389308989048004,-0.2364710420370102
1683752231625865000,2.165864990234375,0.06395431607961655,0.43058720231056213,-0.24262186884880066
1683752231635940000,2.175940185546875,0.08373284339904785,0.4087967276573181,-0.2246931940317154
1683752231646016000,2.18601611328125,0.0860346183180809,0.38020503520965576,-0.201711967587471
1683752231656091100,2.196091064453125,0.0841078907251358,0.3279263377189636,-0.1812942624092102
1683752231666166000,2.206166015625,0.07860393077135086,0.26135024428367615,-0.16876408457756042
1683752231676241200,2.2162412109375,0.06426882743835449,0.20005042850971222,-0.15907832980155945
1683752231686316000,2.22631591796875,0.04083460196852684,0.15618069469928741,-0.15603940188884735
1683752231696391200,2.23639111328125,0.010892726480960846,0.14274106919765472,-0.1519092619419098
1683752231706466300,2.24646630859375,-0.006242318078875542,0.15853148698806763,-0.14324599504470825
1683752231716541000,2.256541015625,-0.020111780613660812,0.14785724878311157,-0.11691104620695114
1683752231726617000,2.2666171875,-0.03147948160767555,0.12715889513492584,-0.09388881921768188
1683752231736692200,2.276692138671875,-0.05168750137090683,0.10847789794206619,-0.07995282113552094
1683752231746767000,2.28676708984375,-0.06539957970380783,0.10396569967269897,-0.07862629741430283
1683752231756842200,2.29684228515625,-0.06164693087339401,0.137581467628479,-0.08928649127483368
1683752231766916900,2.306916748046875,-0.04436780884861946,0.19678406417369843,-0.1077621728181839
1683752231776992000,2.316991943359375,-0.025494089350104332,0.2852928936481476,-0.10152672231197357
1683752231787067100,2.327067138671875,0.014037339948117733,0.3437647223472595,-0.0704130157828331
1683752231797143000,2.33714306640625,0.057890020310878754,0.3887556195259094,-0.032586440443992615
1683752231807218200,2.34721826171875,0.10993724316358566,0.40679267048835754,0.02152952551841736
1683752231817293000,2.35729296875,0.19650238752365112,0.32544562220573425,0.07384991645812988
1683752231827368000,2.367367919921875,0.19858817756175995,0.2781132459640503,0.10634900629520416
1683752231837442800,2.37744287109375,0.17894354462623596,0.1751679629087448,0.08679823577404022
1683752231847518000,2.38751806640625,0.17470698058605194,0.050737082958221436,0.013134135864675045
1683752231857593000,2.397593017578125,0.16379141807556152,-0.06752375513315201,-0.08575814962387085
1683752231867668000,2.40766796875,0.13062867522239685,-0.17284032702445984,-0.16842825710773468
1683752231877743900,2.417743896484375,0.11061208695173264,-0.2513948082923889,-0.22373747825622559
1683752231887819000,2.427819091796875,0.11231571435928345,-0.29477158188819885,-0.2589021325111389
1683752231897894000,2.437893798828125,0.11474936455488205,-0.28569790720939636,-0.2772376835346222
1683752231907969000,2.447968994140625,0.12276867032051086,-0.2463395744562149,-0.26324546337127686
1683752231918044200,2.458044189453125,0.12111853063106537,-0.22985036671161652,-0.22185614705085754
1683752231928119000,2.468119140625,0.11114552617073059,-0.21129879355430603,-0.15920235216617584
1683752231938194000,2.47819384765625,0.08954830467700958,-0.19576989114284515,-0.07566770911216736
1683752231948268800,2.488268798828125,0.10914410650730133,-0.2355969399213791,0.02067134529352188
1683752231958345000,2.498344970703125,0.11371893435716629,-0.24469320476055145,0.09037543833255768
1683752231968420000,2.508420166015625,0.05970895662903786,-0.16967596113681793,0.1341407597064972
1683752231978495000,2.518494873046875,-0.022585391998291016,-0.11084698885679245,0.15302185714244843
1683752231988569900,2.52856982421875,-0.09084566682577133,-0.07411826401948929,0.13992975652217865
1683752231998645000,2.53864501953125,-0.11243117600679398,0.0010403958149254322,0.09641712158918381
1683752232008720000,2.548719970703125,-0.10857518762350082,0.030596423894166946,0.05853871628642082
1683752232018795000,2.558794921875,-0.1744726449251175,0.10536466538906097,0.042191032320261
1683752232028871200,2.56887109375,-0.2169756293296814,0.23281235992908478,0.059599850326776505
1683752232038945800,2.57894580078125,-0.22977149486541748,0.25043103098869324,0.05726974830031395
1683752232049021000,2.58902099609375,-0.2291794717311859,0.29630666971206665,0.047017909586429596
1683752232059095800,2.599095703125,-0.22607778012752533,0.2963918447494507,0.04315928369760513
1683752232069171000,2.6091708984375,-0.26917436718940735,0.2582641839981079,0.04835643991827965
1683752232079246000,2.61924609375,-0.3065659701824188,0.19889114797115326,0.061346977949142456
1683752232089321000,2.629321044921875,-0.3057672679424286,0.13544613122940063,0.09106172621250153
1683752232099396000,2.63939599609375,-0.3035818040370941,0.08515261113643646,0.14155727624893188
1683752232109472000,2.649471923828125,-0.32098448276519775,0.05167881026864052,0.2062438577413559
1683752232119547000,2.659546875,-0.35497984290122986,0.03279513120651245,0.24035435914993286
1683752232129622000,2.6696220703125,-0.3808031976222992,0.01973791792988777,0.23858869075775146
1683752232139697200,2.679697265625,-0.390026718378067,-0.006321934051811695,0.20530934631824493
1683752232149772000,2.68977197265625,-0.3874807357788086,-0.060310862958431244,0.15737883746623993
1683752232159847000,2.699846923828125,-0.37681615352630615,-0.10737477242946625,0.0994967669248581
1683752232169921800,2.709921875,-0.35043248534202576,-0.10634945333003998,0.052497826516628265
1683752232179998000,2.719998046875,-0.3161633610725403,-0.08755204826593399,0.047685638070106506
1683752232190073000,2.730072998046875,-0.29298534989356995,-0.06488721817731857,0.08034531027078629
1683752232200148000,2.74014794921875,-0.30705684423446655,-0.0339767262339592,0.12982240319252014
1683752232210222800,2.750222900390625,-0.3574419915676117,0.016207082197070122,0.16101014614105225
1683752232220298000,2.760298095703125,-0.4157344400882721,0.04420304298400879,0.1790807843208313
1683752232230372900,2.770372802734375,-0.45832690596580505,0.039059147238731384,0.1718452423810959
1683752232240448000,2.780447998046875,-0.4718190133571625,0.03297726809978485,0.1526445746421814
1683752232250523100,2.790523193359375,-0.4709034264087677,0.014223290607333183,0.151330828666687
1683752232260598800,2.800598876953125,-0.47189420461654663,-0.053507015109062195,0.16939568519592285
1683752232270674000,2.810673828125,-0.4904590845108032,-0.09359344840049744,0.1608019322156906
1683752232280749000,2.8207490234375,-0.48704367876052856,-0.07500244677066803,0.11138062924146652
1683752232290824000,2.830823974609375,-0.5053513050079346,-0.022370388731360435,0.0642717033624649
1683752232300899000,2.840899169921875,-0.5111186504364014,0.030981790274381638,0.016605550423264503
1683752232310974000,2.850973876953125,-0.49779272079467773,0.1171473041176796,-0.03316067159175873
1683752232321049000,2.861049072265625,-0.48314255475997925,0.20373092591762543,-0.06382893770933151
1683752232331125000,2.871125,-0.47737494111061096,0.29874664545059204,-0.08791030198335648
1683752232341200000,2.881199951171875,-0.4669085144996643,0.4303843080997467,-0.12261692434549332
1683752232351275000,2.89127490234375,-0.4147680997848511,0.6283557415008545,-0.16677506268024445
1683752232361350100,2.90135009765625,-0.346775084733963,0.8769583106040955,-0.20650243759155273
1683752232371425000,2.911425048828125,-0.2714124023914337,1.1357585191726685,-0.2560012638568878
1683752232381500000,2.9215,-0.24924345314502716,1.3543200492858887,-0.27319392561912537
1683752232391574800,2.93157470703125,-0.3134605288505554,1.4501813650131226,-0.2159000039100647
1683752232401650000,2.94164990234375,-0.40408703684806824,1.406596064567566,-0.10450802743434906
1683752232411726000,2.95172607421875,-0.5050429701805115,1.3253933191299438,0.011294737458229065
1683752232421801200,2.96180126953125,-0.6120474934577942,1.200485348701477,0.09839168936014175
1683752232431875800,2.971875732421875,-0.6805083155632019,1.0318342447280884,0.1087535172700882
1683752232441951000,2.981950927734375,-0.769873857498169,0.8304188251495361,0.06738310307264328
1683752232452025900,2.99202587890625,-0.8335268497467041,0.5754597187042236,-0.006045840680599213
1683752232462101000,3.00210107421875,-0.8591765761375427,0.3323485553264618,-0.097136490046978
1683752232472176000,3.012176025390625,-0.892857551574707,0.2218896895647049,-0.19662953913211823
1683752232482251800,3.022251708984375,-0.9269797205924988,0.25621968507766724,-0.2853599190711975
1683752232492327000,3.032326904296875,-0.9491337537765503,0.384299099445343,-0.3122631907463074
1683752232502402000,3.042402099609375,-0.9622904658317566,0.543965756893158,-0.23612076044082642
1683752232512477000,3.052476806640625,-1.1034477949142456,0.6261945366859436,-0.0725930780172348
1683752232522552000,3.062552001953125,-1.2063777446746826,0.7833676934242249,0.1899671107530594
1683752232532627000,3.072626953125,-1.1982601881027222,0.8651956915855408,0.4357188045978546
1683752232542702000,3.0827021484375,-1.1715699434280396,0.933771550655365,0.5671268701553345
1683752232552777000,3.09277685546875,-1.1566932201385498,0.9211268424987793,0.5926130414009094
1683752232562852900,3.102852783203125,-1.1654691696166992,0.8669488430023193,0.561164140701294
1683752232572928000,3.112927978515625,-1.1840167045593262,0.7485843896865845,0.46336033940315247
1683752232583003100,3.123003173828125,-1.1978490352630615,0.527378499507904,0.2764964997768402
1683752232593078000,3.133078125,-1.1595618724822998,0.3282850980758667,-0.008679605089128017
1683752232603153000,3.14315283203125,-1.1181700229644775,0.2969745993614197,-0.35343557596206665
1683752232613228000,3.15322802734375,-1.1130280494689941,0.42025017738342285,-0.6321322321891785
1683752232623303000,3.163302978515625,-1.1003427505493164,0.5895113945007324,-0.7453277111053467
1683752232633379000,3.173379150390625,-1.078607439994812,0.7173539996147156,-0.7284232974052429
1683752232643454000,3.183453857421875,-1.0711013078689575,0.8293223977088928,-0.6516228914260864
1683752232653528800,3.19352880859375,-1.096199631690979,0.9985231161117554,-0.5285278558731079
1683752232663604000,3.20360400390625,-1.1134814023971558,1.1911007165908813,-0.406474232673645
1683752232673678800,3.213678955078125,-1.124277114868164,1.4084562063217163,-0.30639585852622986
1683752232683754000,3.22375390625,-1.1534018516540527,1.6233762502670288,-0.24269123375415802
1683752232693829000,3.2338291015625,-1.2207512855529785,1.7957576513290405,-0.23945176601409912
1683752232703904800,3.24390478515625,-1.3005422353744507,1.9302021265029907,-0.32631734013557434
1683752232713980000,3.25397998046875,-1.3557785749435425,1.9566664695739746,-0.5248168110847473
1683752232724055000,3.264054931640625,-1.3741581439971924,1.8854107856750488,-0.8328654766082764
1683752232734130000,3.2741298828125,-1.4160994291305542,1.7581868171691895,-1.2178716659545898
1683752232744205000,3.284205078125,-1.5370800495147705,1.6652660369873047,-1.617579460144043
1683752232754280200,3.2942802734375,-1.7457802295684814,1.6670492887496948,-1.9512487649917603
1683752232764355000,3.30435498046875,-1.962177038192749,1.7711056470870972,-2.1347908973693848
1683752232774430000,3.314429931640625,-2.0774102210998535,1.9841511249542236,-2.0881171226501465
1683752232784506000,3.324506103515625,-2.0927650928497314,2.103050708770752,-1.787057876586914
1683752232794581000,3.3345810546875,-1.9992246627807617,2.1247410774230957,-1.321500539779663
1683752232804656000,3.34465625,-1.7811399698257446,2.1926989555358887,-0.8069859147071838
1683752232814731000,3.35473095703125,-1.5720651149749756,2.2344255447387695,-0.3620532155036926
1683752232824806000,3.364805908203125,-1.4543081521987915,2.221228837966919,-0.06501827389001846
1683752232834881000,3.374881103515625,-1.4139162302017212,2.189394474029541,0.06954459846019745
1683752232844956000,3.384955810546875,-1.4796288013458252,2.1880698204040527,0.07292794436216354
1683752232855032000,3.395031982421875,-1.6487818956375122,2.1893043518066406,-0.0659676268696785
1683752232865107000,3.40510693359375,-1.8595647811889648,2.1606240272521973,-0.3001542091369629
1683752232875181800,3.415181884765625,-2.072336196899414,2.095588445663452,-0.5509129166603088
1683752232885257000,3.425257080078125,-2.2578728199005127,2.029677629470825,-0.7440859079360962
1683752232895331800,3.435331787109375,-2.351228713989258,1.957314133644104,-0.8542832136154175
1683752232905407000,3.445406982421875,-2.2931697368621826,1.8628746271133423,-0.8489413857460022
1683752232915482000,3.455482177734375,-2.1387155055999756,1.7576589584350586,-0.7508153319358826
1683752232925558000,3.46555810546875,-1.953499436378479,1.650037169456482,-0.5855368971824646
1683752232935633000,3.4756328125,-1.808100700378418,1.5308178663253784,-0.40831631422042847
1683752232945708000,3.4857080078125,-1.7266244888305664,1.4360969066619873,-0.23257862031459808
1683752232955783000,3.495782958984375,-1.6992011070251465,1.3567733764648438,-0.0872749388217926
1683752232965858000,3.505858154296875,-1.7201640605926514,1.319193959236145,0.021735360845923424
1683752232975933200,3.51593310546875,-1.7819880247116089,1.3226606845855713,0.07767266035079956
1683752232986007800,3.5260078125,-1.8426551818847656,1.3711029291152954,0.07692012190818787
1683752232996084000,3.536083984375,-1.8695714473724365,1.4645804166793823,0.04865972325205803
1683752233006159000,3.5461591796875,-1.8864039182662964,1.5825144052505493,0.04035449028015137
1683752233016234000,3.55623388671875,-1.9143263101577759,1.7472994327545166,0.08166251331567764
1683752233026309000,3.56630908203125,-1.9581594467163086,1.9139758348464966,0.18711671233177185
1683752233036383700,3.5763837890625,-1.9936306476593018,2.054428815841675,0.3413539230823517
1683752233046459000,3.586458984375,-2.0295681953430176,2.1340270042419434,0.5048435926437378
1683752233056534000,3.596533935546875,-2.0405092239379883,2.137640953063965,0.6217153668403625
1683752233066610000,3.60660986328125,-2.027933359146118,2.1057016849517822,0.6760669946670532
1683752233076685000,3.61668505859375,-2.04583740234375,1.9858635663986206,0.6781349182128906
1683752233086760000,3.626760009765625,-2.0912997722625732,1.7531384229660034,0.6152132153511047
1683752233096834800,3.636834716796875,-2.1417620182037354,1.4402955770492554,0.46323162317276
1683752233106910000,3.646909912109375,-2.1709091663360596,1.0920687913894653,0.22930850088596344
1683752233116985000,3.656985107421875,-2.19234037399292,0.7035405039787292,-0.05909533426165581
1683752233127060000,3.66706005859375,-2.232525110244751,0.36345264315605164,-0.36811307072639465
1683752233137135000,3.677135009765625,-2.222647190093994,0.11613580584526062,-0.6215211153030396
1683752233147211000,3.6872109375,-2.3010973930358887,0.022529175505042076,-0.8221225738525391
1683752233157286000,3.697285888671875,-2.3906290531158447,0.08270595967769623,-0.9428631067276001
1683752233167361000,3.707361083984375,-2.36922550201416,0.11652758717536926,-0.9849250912666321
1683752233177436000,3.717435791015625,-2.3121798038482666,0.11441463232040405,-1.0015743970870972
1683752233187511000,3.727510986328125,-2.247281789779663,0.04045519232749939,-1.027816891670227
1683752233197586200,3.737586181640625,-2.1360931396484375,-0.12982520461082458,-1.0583369731903076
1683752233207660800,3.747660888671875,-2.031358480453491,-0.29479336738586426,-1.0747771263122559
1683752233217737000,3.757737060546875,-1.9490717649459839,-0.43506765365600586,-1.0939254760742188
1683752233227812000,3.76781201171875,-1.8099902868270874,-0.5843860507011414,-1.073740005493164
1683752233237887000,3.777886962890625,-1.6527734994888306,-0.7385671138763428,-1.02171790599823
1683752233247962000,3.787962158203125,-1.4625537395477295,-0.8486347198486328,-0.9486351013183594
1683752233258037000,3.798037109375,-1.2184324264526367,-0.9108640551567078,-0.8720319271087646
1683752233268112000,3.80811181640625,-0.918045699596405,-0.9066407680511475,-0.7646004557609558
1683752233278187000,3.81818701171875,-0.643010675907135,-0.818722128868103,-0.5836013555526733
1683752233288263200,3.82826318359375,-0.49260035157203674,-0.6350290179252625,-0.3367592692375183
1683752233298338000,3.838338134765625,-0.3995228707790375,-0.4585402309894562,-0.05452864617109299
1683752233308413000,3.848412841796875,-0.30945801734924316,-0.33586838841438293,0.16899286210536957
1683752233318487800,3.85848779296875,-0.2532336115837097,-0.2528829574584961,0.31036409735679626
1683752233328563000,3.86856298828125,-0.21099567413330078,-0.2973172664642334,0.3667681813240051
1683752233338638000,3.87863818359375,-0.14573678374290466,-0.41093650460243225,0.3176184892654419
1683752233348713000,3.888712890625,-0.09926232695579529,-0.5004975199699402,0.2004612684249878
1683752233358788900,3.898788818359375,-0.09995181858539581,-0.5825684666633606,0.04923020303249359
1683752233368864000,3.908864013671875,-0.1334490180015564,-0.6331961750984192,-0.07133994251489639
1683752233378939000,3.91893896484375,-0.1781618893146515,-0.682593047618866,-0.11141412705183029
1683752233389014000,3.929013916015625,-0.20178264379501343,-0.7379915714263916,-0.06288395076990128
1683752233399089000,3.9390888671875,-0.18528994917869568,-0.7922212481498718,0.05635589361190796
1683752233409164000,3.9491640625,-0.1759541630744934,-0.8123036623001099,0.18050390481948853
1683752233419239200,3.9592392578125,-0.3413468599319458,-0.6899223327636719,0.23775573074817657
1683752233429315000,3.969315185546875,-0.4461739957332611,-0.5378459692001343,0.25446876883506775
1683752233439390000,3.979389892578125,-0.3987276554107666,-0.556696355342865,0.253927618265152
1683752233449465000,3.989465087890625,-0.28381845355033875,-0.5971319675445557,0.2509322762489319
1683752233459540000,3.9995400390625,-0.3013707995414734,-0.5422372817993164,0.26163017749786377
1683752233469615000,4.009614990234375,-0.38653185963630676,-0.41225236654281616,0.2246307134628296
1683752233479690000,4.01968994140625,-0.42167893052101135,-0.281318336725235,0.18269792199134827
1683752233489764900,4.029764892578125,-0.46625834703445435,-0.056206896901130676,0.19556039571762085
1683752233499841000,4.039841064453125,-0.5385999083518982,0.14087261259555817,0.21205495297908783
1683752233509916200,4.049916259765625,-0.6451635360717773,0.18865957856178284,0.22624440491199493
1683752233519991000,4.059990966796875,-0.7534604668617249,0.17471100389957428,0.18796731531620026
1683752233530066000,4.07006591796875,-0.8823652267456055,0.21488024294376373,0.11250727623701096
1683752233540140800,4.080140869140625,-1.0390253067016602,0.34181341528892517,0.05644028261303902
1683752233550216000,4.0902158203125,-1.1298683881759644,0.4934900403022766,0.024711618199944496
1683752233560291000,4.100291015625,-1.141699194908142,0.7732678651809692,0.02268335409462452
1683752233570366000,4.110365966796875,-1.1465328931808472,1.2528992891311646,0.1657552272081375
1683752233580441900,4.12044189453125,-1.1906660795211792,1.8223289251327515,0.4828018844127655
1683752233590517000,4.13051708984375,-1.247789740562439,2.2306947708129883,0.8432772159576416
1683752233600592000,4.140591796875,-1.5166544914245605,2.451011896133423,1.1936736106872559
1683752233610667000,4.1506669921875,-1.78606116771698,2.37650728225708,1.3966799974441528
1683752233620742100,4.1607421875,-1.9073036909103394,1.9298008680343628,1.3206562995910645
1683752233630817000,4.170817138671875,-1.8441425561904907,1.390501856803894,1.1349077224731445
1683752233640892000,4.180891845703125,-1.6064796447753906,1.350006103515625,1.1473809480667114
1683752233650968000,4.190968017578125,-1.3936876058578491,1.7172435522079468,1.2848416566848755
1683752233661043000,4.20104296875,-1.2466001510620117,2.0604238510131836,1.3563458919525146
1683752233671118000,4.2111181640625,-1.0950396060943604,2.2502057552337646,1.3347569704055786
1683752233681193000,4.22119287109375,-0.9860857129096985,2.3933045864105225,1.3120391368865967
1683752233691267800,4.231267822265625,-0.8483028411865234,2.52199387550354,1.3422726392745972
1683752233701343000,4.241343017578125,-0.6497918963432312,2.669440269470215,1.3881114721298218
1683752233711417900,4.25141796875,-0.41520294547080994,2.860527992248535,1.4121214151382446
1683752233721494000,4.261493896484375,-0.12882764637470245,3.1721227169036865,1.4214073419570923
1683752233731569200,4.271569091796875,0.03463847562670708,3.49381947517395,1.3887814283370972
1683752233741644000,4.28164404296875,0.033545248210430145,3.715223550796509,1.2691162824630737
1683752233751719000,4.291718994140625,0.005611359607428312,3.810046434402466,1.1041053533554077
1683752233761794000,4.3017939453125,-0.03873319923877716,3.7616868019104004,0.8751603364944458
1683752233771869000,4.311868896484375,-0.12132656574249268,3.6313838958740234,0.6013575196266174
1683752233781944000,4.321944091796875,-0.21515026688575745,3.4701879024505615,0.3174661099910736
1683752233792020000,4.33202001953125,-0.41623902320861816,3.2370450496673584,0.07534715533256531
1683752233802094800,4.3420947265625,-0.8411127924919128,2.574979543685913,-0.25624966621398926
1683752233812170500,4.35217041015625,-0.9706728458404541,1.8957029581069946,-0.5909132957458496
1683752233822245400,4.362245361328125,-0.9362451434135437,1.3350682258605957,-0.7845432162284851
1683752233832320500,4.372320556640625,-0.7805203795433044,0.98599773645401,-0.7319993376731873
1683752233842395600,4.382395751953125,-0.4593575596809387,0.8143404722213745,-0.4120088219642639
1683752233852470300,4.39247021484375,-0.041790466755628586,0.7330933213233948,0.027332201600074768
1683752233862546400,4.40254638671875,0.39632856845855713,0.7414947748184204,0.4234502613544464
1683752233872621600,4.41262158203125,0.6159335970878601,0.7798096537590027,0.6763544678688049
1683752233882696400,4.422696533203125,0.6295189261436462,0.7650664448738098,0.8171059489250183
1683752233892771600,4.432771484375,0.537144660949707,0.5747683644294739,0.8748424649238586
1683752233902846500,4.442846435546875,0.4639841914176941,0.3083726465702057,0.8516641855239868
1683752233912921300,4.45292138671875,0.5084335803985596,0.15153910219669342,0.8027664422988892
1683752233922996500,4.46299658203125,0.580580472946167,0.06316131353378296,0.7468507289886475
1683752233933072600,4.47307275390625,0.42448291182518005,-0.033107176423072815,0.6022051572799683
1683752233943147500,4.4831474609375,0.26433345675468445,-0.1215512827038765,0.41297343373298645
1683752233953222400,4.493222412109375,0.0444662980735302,-0.2544254660606384,0.2119429111480713
1683752233963297300,4.50329736328125,-0.035637859255075455,-0.349501371383667,-0.02949793078005314
1683752233973372400,4.513372314453125,-0.07826065272092819,-0.3173178434371948,-0.28245189785957336
1683752233983447600,4.523447509765625,-0.12208456546068192,-0.22393864393234253,-0.4790981113910675
1683752233993522400,4.5335224609375,-0.13821889460086823,-0.10728393495082855,-0.5618667006492615
1683752234003598300,4.543598388671875,-0.13347899913787842,0.03569053113460541,-0.5408804416656494
1683752234013673500,4.553673583984375,-0.10240176320075989,0.2027982920408249,-0.44766244292259216
1683752234023748400,4.563748291015625,-0.06529753655195236,0.38031208515167236,-0.3012423813343048
1683752234033823500,4.573823486328125,-0.08505266904830933,0.5247337222099304,-0.12068705260753632
1683752234043898600,4.583898681640625,-0.022644152864813805,0.5444384217262268,0.054842423647642136
1683752234053973500,4.593973388671875,0.14367808401584625,0.5589476227760315,0.17605769634246826
1683752234064048600,4.604048583984375,0.2044122815132141,0.5797423720359802,0.21097946166992188
1683752234074124500,4.61412451171875,0.1863134801387787,0.534331202507019,0.21568210422992706
1683752234084199400,4.624199462890625,0.16078121960163116,0.44805118441581726,0.1952306181192398
1683752234094274600,4.634274658203125,0.08816038817167282,0.36725038290023804,0.139093816280365
1683752234104349400,4.644349365234375,0.03608733415603638,0.2528817057609558,0.031130339950323105
1683752234114424600,4.654424560546875,0.04063425585627556,0.17544177174568176,-0.13902072608470917
1683752234124499500,4.66449951171875,-0.0120957987383008,0.0886288583278656,-0.26045262813568115
1683752234134574300,4.67457421875,-0.08868399262428284,-0.04222423583269119,-0.2619941830635071
1683752234144650500,4.684650390625,-0.09222280234098434,-0.20019975304603577,-0.21355102956295013
1683752234154725600,4.6947255859375,-0.05940615385770798,-0.3147159516811371,-0.1702909916639328
1683752234164800500,4.704800537109375,-0.052660636603832245,-0.39658525586128235,-0.16561155021190643
1683752234174875400,4.71487548828125,-0.038177572190761566,-0.4501704275608063,-0.1953282654285431
1683752234184950500,4.724950439453125,-0.01424667239189148,-0.4563193917274475,-0.234915629029274
1683752234195025400,4.735025390625,-0.0018471514340490103,-0.4375675916671753,-0.2575629651546478
1683752234205100500,4.7451005859375,-0.08704913407564163,-0.43268895149230957,-0.18444323539733887
1683752234215176700,4.7551767578125,-0.07473205775022507,-0.36656638979911804,-0.12128577381372452
1683752234225251300,4.765251220703125,0.054358016699552536,-0.25946229696273804,-0.12560169398784637
1683752234235326500,4.775326416015625,0.1865883618593216,-0.10118340700864792,-0.1355019211769104
1683752234245401300,4.7854013671875,0.2518906593322754,-0.022448651492595673,-0.12771058082580566
1683752234255476500,4.7954765625,0.308544784784317,-0.04984724894165993,-0.11983577162027359
1683752234265551600,4.805551513671875,0.35365259647369385,-0.08320946246385574,-0.09406702220439911
1683752234275626500,4.81562646484375,0.3235218822956085,-0.14561906456947327,-0.06331414729356766
1683752234285702400,4.825702392578125,0.3726779818534851,-0.22020408511161804,-0.07289167493581772
1683752234295777500,4.835777587890625,0.48311248421669006,-0.3119521141052246,-0.15605196356773376
1683752234305852400,4.845852294921875,0.5458062291145325,-0.39840444922447205,-0.3306275010108948
1683752234315927600,4.855927490234375,0.47133317589759827,-0.5131536722183228,-0.5377311706542969
1683752234326002400,4.86600244140625,0.3132562041282654,-0.6939586400985718,-0.7074464559555054
1683752234336077600,4.87607763671875,0.2179882675409317,-0.9483493566513062,-0.8136603236198425
1683752234346152400,4.88615234375,0.21251147985458374,-1.2659834623336792,-0.8833248615264893
1683752234356228600,4.896228515625,0.2544304430484772,-1.5999259948730469,-0.9524441361427307
1683752234366303500,4.906303466796875,0.3340749442577362,-1.931280493736267,-1.0392402410507202
1683752234376378600,4.916378662109375,0.40700286626815796,-2.2063276767730713,-1.1221526861190796
1683752234386453500,4.92645361328125,0.4663085341453552,-2.3667523860931396,-1.1825937032699585
1683752234396528400,4.9365283203125,0.533313512802124,-2.5030429363250732,-1.1997662782669067
1683752234406603500,4.946603515625,0.6055988669395447,-2.6890416145324707,-1.17998468875885
1683752234416678400,4.956678466796875,0.6948190331459045,-2.918541669845581,-1.146209716796875
1683752234426754600,4.966754638671875,0.8055011034011841,-3.1422646045684814,-1.132840871810913
1683752234436829400,4.976829345703125,0.9112447500228882,-3.3174660205841064,-1.1589851379394531
1683752234446904300,4.986904296875,0.9786916971206665,-3.390695095062256,-1.209340214729309
1683752234456979500,4.9969794921875,1.0200295448303223,-3.356003999710083,-1.2194188833236694
1683752234467054300,5.007054443359375,1.0631940364837646,-3.293612480163574,-1.1527659893035889
1683752234477129500,5.01712939453125,1.136378526687622,-3.185060977935791,-0.9988083243370056
1683752234487204600,5.02720458984375,1.2360929250717163,-3.018317222595215,-0.7655031681060791
1683752234497280300,5.0372802734375,1.3593956232070923,-2.8704798221588135,-0.5101837515830994
1683752234507355400,5.04735546875,1.4969356060028076,-2.789736032485962,-0.3073084056377411
1683752234517430500,5.057430419921875,1.6199910640716553,-2.739936113357544,-0.17873691022396088
1683752234527505400,5.06750537109375,1.7011842727661133,-2.6942009925842285,-0.04775918275117874
1683752234537580500,5.07758056640625,1.7441678047180176,-2.6422457695007324,0.09166435152292252
1683752234547655700,5.08765576171875,1.7362526655197144,-2.57712721824646,0.2612656354904175
1683752234557730600,5.09773046875,1.659669280052185,-2.4779393672943115,0.4235638678073883
1683752234567806500,5.107806396484375,1.5643718242645264,-2.4649293422698975,0.4879721701145172
1683752234577881600,5.117881591796875,1.454956293106079,-2.535843849182129,0.456939697265625
1683752234587956500,5.12795654296875,1.3420171737670898,-2.705292224884033,0.3464733958244324
1683752234598031600,5.138031494140625,1.244585394859314,-2.8707070350646973,0.19802464544773102
1683752234608106500,5.1481064453125,1.1583596467971802,-2.8822505474090576,0.07562816888093948
1683752234618181400,5.158181396484375,1.0839093923568726,-2.7974236011505127,-0.01041614543646574
1683752234628256500,5.168256591796875,1.0233917236328125,-2.632875680923462,-0.06544503569602966
1683752234638332400,5.17833251953125,0.9788968563079834,-2.4342355728149414,-0.11545035988092422
1683752234648407600,5.188407470703125,0.8944917321205139,-2.2817230224609375,-0.15484994649887085
1683752234658482400,5.198482421875,0.6816920638084412,-2.1656835079193115,-0.2981613576412201
1683752234668557300,5.208557373046875,0.4592038691043854,-2.0539493560791016,-0.5693281292915344
1683752234678632400,5.218632568359375,0.4018198847770691,-2.0283586978912354,-0.8278675675392151
1683752234688707600,5.22870751953125,0.5183616876602173,-2.0900440216064453,-0.9842654466629028
1683752234698782500,5.238782470703125,0.7207426428794861,-2.1905531883239746,-1.0372074842453003
1683752234708858400,5.2488583984375,0.8543829917907715,-2.162581443786621,-1.071904182434082
1683752234718933500,5.25893359375,0.8818841576576233,-2.0610296726226807,-1.1574530601501465
1683752234729008400,5.26900830078125,0.8919498324394226,-1.9606263637542725,-1.2669827938079834
1683752234739083500,5.27908349609375,0.9006415605545044,-1.8826735019683838,-1.384263277053833
1683752234749158400,5.289158447265625,0.9097191691398621,-1.7962092161178589,-1.4915474653244019
1683752234759233500,5.299233642578125,0.9839800000190735,-1.728647232055664,-1.5689876079559326
1683752234769308700,5.30930859375,1.117746353149414,-1.642278790473938,-1.5796202421188354
1683752234779384300,5.31938427734375,1.245542287826538,-1.6079986095428467,-1.5136913061141968
1683752234789459500,5.32945947265625,1.3224709033966064,-1.6665679216384888,-1.4338103532791138
1683752234799534600,5.33953466796875,1.3495739698410034,-1.769812822341919,-1.3667982816696167
1683752234809609500,5.349609375,1.3604559898376465,-1.887049674987793,-1.3575571775436401
1683752234819684000,5.35968408203125,1.3642990589141846,-2.0160255432128906,-1.3560137748718262
1683752234829759200,5.36975927734375,1.4125001430511475,-2.0364558696746826,-1.3073176145553589
1683752234839834000,5.379834228515625,1.488262414932251,-1.9501111507415771,-1.1967213153839111
1683752234849910000,5.389909912109375,1.5755113363265991,-1.7917063236236572,-1.0246710777282715
1683752234859985200,5.399985107421875,1.6458061933517456,-1.5929096937179565,-0.8050603270530701
1683752234870060300,5.410060302734375,1.7059544324874878,-1.3833662271499634,-0.5464562177658081
1683752234880135200,5.42013525390625,1.7643556594848633,-1.205933928489685,-0.2772172689437866
1683752234890210000,5.4302099609375,1.7962008714675903,-1.0151903629302979,0.019740896299481392
1683752234900285200,5.44028515625,1.7767741680145264,-0.836653470993042,0.309123694896698
1683752234910360000,5.450360107421875,1.7285717725753784,-0.7534040808677673,0.5253590941429138
1683752234920436200,5.460436279296875,1.7190462350845337,-0.724144458770752,0.6542015075683594
1683752234930511400,5.470511474609375,1.7810741662979126,-0.759182333946228,0.6868804097175598
1683752234940586000,5.4805859375,1.882652759552002,-0.9421798586845398,0.6552854180335999
1683752234950661000,5.4906611328125,1.9737626314163208,-1.259277582168579,0.5885082483291626
1683752234960736000,5.500736083984375,2.010460138320923,-1.591240406036377,0.5341318249702454
1683752234970811100,5.51081103515625,1.9838457107543945,-1.8360780477523804,0.5391918420791626
1683752234980887300,5.52088720703125,1.9334887266159058,-1.9566700458526611,0.6164752840995789
1683752234990962000,5.5309619140625,1.9021036624908447,-1.9485173225402832,0.7470902800559998
1683752235001037000,5.541037109375,1.9165096282958984,-1.8179770708084106,0.9023748636245728
1683752235011112200,5.5511123046875,1.955540418624878,-1.6225738525390625,1.0576097965240479
1683752235021187000,5.56118701171875,1.9848332405090332,-1.5298196077346802,1.1720679998397827
1683752235031262200,5.57126220703125,1.9979336261749268,-1.581000566482544,1.2467787265777588
1683752235041337300,5.58133740234375,2.0010933876037598,-1.695762276649475,1.2898056507110596
1683752235051413000,5.5914130859375,2.029297351837158,-1.8296561241149902,1.3222483396530151
1683752235061488000,5.601488037109375,2.081071615219116,-1.9310719966888428,1.368066668510437
1683752235071563300,5.611563232421875,2.112919569015503,-2.048328161239624,1.4441028833389282
1683752235081638100,5.62163818359375,2.09452486038208,-2.1486852169036865,1.5750207901000977
1683752235091713300,5.63171337890625,2.045177459716797,-2.248387098312378,1.7171496152877808
1683752235101788200,5.6417880859375,1.9550952911376953,-2.3793067932128906,1.8023686408996582
1683752235111863000,5.651863037109375,1.8167110681533813,-2.5476608276367188,1.8505077362060547
1683752235121939200,5.661939208984375,1.6177748441696167,-2.6661343574523926,1.8711700439453125
1683752235132014000,5.67201416015625,1.33792245388031,-2.683839797973633,1.8812010288238525
1683752235142089200,5.682089111328125,1.0246328115463257,-2.550715208053589,1.8925212621688843
1683752235152164000,5.6921640625,0.7937436699867249,-2.265538454055786,1.9384349584579468
1683752235162239000,5.702239013671875,0.7393678426742554,-1.8798344135284424,2.0653796195983887
1683752235172314000,5.712314208984375,0.8163550496101379,-1.4668593406677246,2.31491756439209
1683752235182389000,5.722388916015625,0.909788966178894,-1.0758787393569946,2.634941816329956
1683752235192465200,5.732465087890625,0.9621922373771667,-0.7583495378494263,2.8709964752197266
1683752235202540000,5.7425400390625,0.9480382800102234,-0.5751699209213257,2.877547264099121
1683752235212615200,5.752615234375,0.8523839116096497,-0.5031487345695496,2.688664674758911
1683752235222690000,5.76268994140625,0.6885167956352234,-0.5638352632522583,2.3756966590881348
1683752235232765200,5.77276513671875,0.4743589460849762,-0.730036199092865,2.0201032161712646
1683752235242840000,5.782840087890625,0.22231067717075348,-0.8799108266830444,1.6876516342163086
1683752235252915200,5.792915283203125,-0.03424521163105965,-0.9554639458656311,1.4226224422454834
1683752235262991000,5.8029912109375,-0.25794076919555664,-0.9873475432395935,1.2564475536346436
1683752235273066000,5.81306591796875,-0.4358236789703369,-0.9751859903335571,1.2040761709213257
1683752235283141000,5.82314111328125,-0.5447553992271423,-0.8485769033432007,1.2412842512130737
1683752235293216300,5.83321630859375,-0.5536668300628662,-0.6235682964324951,1.3618665933609009
1683752235303291100,5.843291015625,-0.49365395307540894,-0.3766583800315857,1.5182586908340454
1683752235313366300,5.8533662109375,-0.4031781256198883,-0.14096197485923767,1.584078073501587
1683752235323441200,5.863441162109375,-0.3243982791900635,0.10076010227203369,1.4953351020812988
1683752235333517000,5.87351708984375,-0.2795775234699249,0.399310827255249,1.2895818948745728
1683752235343592200,5.88359228515625,-0.24998556077480316,0.6464524865150452,1.062712550163269
1683752235353667000,5.8936669921875,-0.23761357367038727,0.7180795073509216,0.9206382036209106
1683752235363742200,5.9037421875,-0.259376585483551,0.6114861965179443,0.8354906439781189
1683752235373817000,5.913817138671875,-0.3206002414226532,0.43304693698883057,0.7131607532501221
1683752235383892000,5.92389208984375,-0.38889825344085693,0.24604937434196472,0.48103272914886475
1683752235393968000,5.933968017578125,-0.45618516206741333,-0.006858259905129671,0.1661919802427292
1683752235404043300,5.944043212890625,-0.49853628873825073,-0.28688085079193115,-0.11301541328430176
1683752235414118100,5.9541181640625,-0.508904755115509,-0.4715167284011841,-0.31615281105041504
1683752235424193000,5.964193115234375,-0.5152373909950256,-0.581446647644043,-0.44445258378982544
1683752235434268200,5.97426806640625,-0.522979199886322,-0.6810771226882935,-0.5238874554634094
1683752235444343000,5.984343017578125,-0.5250588059425354,-0.736982524394989,-0.5735102891921997
1683752235454418200,5.994418212890625,-0.5036709308624268,-0.6684114336967468,-0.5989160537719727
1683752235464494300,6.004494384765625,-0.4621473550796509,-0.5097166299819946,-0.5717120170593262
1683752235474569000,6.01456884765625,-0.4090457856655121,-0.40090620517730713,-0.4822750687599182
1683752235484644000,6.02464404296875,-0.36230558156967163,-0.3228636085987091,-0.37927672266960144
1683752235494719000,6.034718994140625,-0.3253023028373718,-0.276473730802536,-0.31537285447120667
1683752235504794000,6.044794189453125,-0.2854745388031006,-0.30295008420944214,-0.2980034351348877
1683752235514869200,6.054869140625,-0.2389507293701172,-0.4231284260749817,-0.30676841735839844
1683752235524944100,6.064944091796875,-0.19062790274620056,-0.5724622011184692,-0.3055579662322998
1683752235535020000,6.07502001953125,-0.09604626148939133,-0.7136595845222473,-0.30961716175079346
1683752235545095200,6.08509521484375,0.03357207775115967,-0.7771863341331482,-0.31373918056488037
1683752235555170000,6.095170166015625,0.049208562821149826,-0.8346280455589294,-0.23353970050811768
1683752235565245200,6.1052451171875,0.04811970144510269,-0.8646644949913025,-0.12845155596733093
1683752235575320300,6.1153203125,0.11003206670284271,-0.8932258486747742,-0.07216725498437881
1683752235585395200,6.125395263671875,0.16095130145549774,-0.9097084999084473,-0.05053722858428955
1683752235595470000,6.135469970703125,0.18147441744804382,-0.9316079020500183,-0.09218081086874008
1683752235605546200,6.145546142578125,0.269351601600647,-0.9680410623550415,-0.23137222230434418
1683752235615621000,6.15562109375,0.3733440339565277,-0.9860690236091614,-0.3071138560771942
1683752235625696300,6.1656962890625,0.4698747992515564,-1.1206350326538086,-0.28260236978530884
1683752235635771100,6.175771240234375,0.5665352940559387,-1.1566598415374756,-0.13154305517673492
1683752235645846000,6.185845947265625,0.5521905422210693,-1.2120416164398193,0.16719239950180054
1683752235655921200,6.195921142578125,0.49974489212036133,-1.3224941492080688,0.5395614504814148
1683752235665996000,6.20599609375,0.45712170004844666,-1.3926128149032593,0.795071005821228
1683752235676072200,6.216072265625,0.41126498579978943,-1.428726315498352,0.8613813519477844
1683752235686147300,6.226147216796875,0.3700680732727051,-1.4677876234054565,0.8361274600028992
1683752235696222000,6.236221923828125,0.39469271898269653,-1.5083383321762085,0.7994459271430969
1683752235706297000,6.246297119140625,0.33751827478408813,-1.4291704893112183,0.8382449746131897
1683752235716372200,6.256372314453125,0.22629030048847198,-1.2607722282409668,0.9096512794494629
1683752235726447000,6.266447021484375,0.1125129759311676,-1.034614086151123,1.0326577425003052
1683752235736522200,6.276522216796875,-0.000923571758903563,-0.8079932928085327,1.1940133571624756
1683752235746598100,6.28659814453125,-0.13356928527355194,-0.5815066695213318,1.3744235038757324
1683752235756673000,6.296673095703125,-0.23061087727546692,-0.3613761067390442,1.5139774084091187
1683752235766748200,6.306748046875,-0.3027186393737793,-0.23196779191493988,1.6100162267684937
1683752235776823000,6.316822998046875,-0.38397887349128723,-0.20346957445144653,1.6577259302139282
1683752235786898200,6.326898193359375,-0.47736337780952454,-0.2423008382320404,1.6394648551940918
1683752235796973300,6.336973388671875,-0.5797818899154663,-0.31417158246040344,1.532551646232605
1683752235807048200,6.347048095703125,-0.6960434913635254,-0.36266055703163147,1.3340941667556763
1683752235817123800,6.357123779296875,-0.8160061240196228,-0.39633914828300476,1.0725077390670776
1683752235827198700,6.36719873046875,-0.9258484840393066,-0.418804794549942,0.7677217125892639
1683752235837273900,6.37727392578125,-1.0043654441833496,-0.39129379391670227,0.4646949768066406
1683752235847349000,6.387348876953125,-1.067910075187683,-0.3406793475151062,0.20280945301055908
1683752235857424000,6.397423828125,-1.1146548986434937,-0.2941981256008148,0.004403155297040939
1683752235867498800,6.407498779296875,-1.1120202541351318,-0.2753456234931946,-0.1440376192331314
1683752235877575000,6.417574951171875,-1.1155822277069092,-0.21723014116287231,-0.21119029819965363
1683752235887649800,6.42764990234375,-1.1307493448257446,-0.19189278781414032,-0.22205737233161926
1683752235897725000,6.437724853515625,-1.1496124267578125,-0.1505751758813858,-0.25052788853645325
1683752235907800000,6.447800048828125,-1.1670869588851929,-0.06070467829704285,-0.3051348626613617
1683752235917874700,6.457874755859375,-1.1057929992675781,-0.01620885170996189,-0.41422832012176514
1683752235927949800,6.46794970703125,-0.9591957330703735,0.06434563547372818,-0.5178726315498352
1683752235938024700,6.478024658203125,-0.7611585855484009,0.11519257724285126,-0.5170893669128418
1683752235948100900,6.488100830078125,-0.5904054045677185,0.14056317508220673,-0.3816099762916565
1683752235958176000,6.498176025390625,-0.49227428436279297,0.10052467882633209,-0.14101466536521912
1683752235968250600,6.508250732421875,-0.4619247317314148,-0.02082226052880287,0.12364383041858673
1683752235978325800,6.51832568359375,-0.49594423174858093,-0.22839754819869995,0.31149256229400635
1683752235988401000,6.52840087890625,-0.5836381912231445,-0.459641695022583,0.3644465506076813
1683752235998475800,6.538475830078125,-0.6963176131248474,-0.666379988193512,0.25070321559906006
1683752236008551000,6.548551025390625,-0.7992900609970093,-0.7464527487754822,-0.03496186062693596
1683752236018626800,6.558626708984375,-0.8526262640953064,-0.6947828531265259,-0.41582638025283813
1683752236028701700,6.56870166015625,-0.8352970480918884,-0.6965040564537048,-0.7422991394996643
1683752236038776800,6.57877685546875,-0.7672287821769714,-0.9099742770195007,-0.8818002939224243
1683752236048851700,6.588851806640625,-0.6832342743873596,-1.228267788887024,-0.8650252819061279
1683752236058926800,6.5989267578125,-0.6385064721107483,-1.4538750648498535,-0.794859766960144
1683752236069002000,6.609001953125,-0.6353057622909546,-1.6067445278167725,-0.7111287117004395
1683752236079078000,6.619077880859375,-0.681835412979126,-1.672533631324768,-0.6656216979026794
1683752236089152800,6.62915283203125,-0.7642871141433716,-1.7073901891708374,-0.6834014654159546
1683752236099228000,6.639227783203125,-0.8586130738258362,-1.7164236307144165,-0.7537022233009338
1683752236109302800,6.649302734375,-0.9473355412483215,-1.6668450832366943,-0.8562744855880737
1683752236119378000,6.6593779296875,-0.9949858784675598,-1.5168896913528442,-0.9653604626655579
1683752236129453000,6.669453125,-0.9753262400627136,-1.291254997253418,-1.0238622426986694
1683752236139527700,6.679527587890625,-0.8718448877334595,-1.1288245916366577,-0.9622295498847961
1683752236149603800,6.689603759765625,-0.7215219736099243,-0.9606211185455322,-0.7883214950561523
1683752236159679000,6.699678955078125,-0.6223349571228027,-0.7159479856491089,-0.5597349405288696
1683752236169753900,6.70975390625,-0.5928482413291931,-0.30860263109207153,-0.37527918815612793
1683752236179829000,6.7198291015625,-0.6111462712287903,0.13411618769168854,-0.2415008842945099
1683752236189903600,6.729903564453125,-0.6362033486366272,0.41895991563796997,-0.19302013516426086
1683752236199978800,6.739978759765625,-0.6211985945701599,0.6125490665435791,-0.15649914741516113
1683752236210054000,6.750053955078125,-0.5867437720298767,0.3425402343273163,-0.19191981852054596
1683752236220129800,6.7601298828125,-0.5240726470947266,0.019588273018598557,-0.1362490952014923
1683752236230205000,6.770204833984375,-0.4410019516944885,-0.4958585500717163,-0.019282225519418716
1683752236240279800,6.78027978515625,-0.3395192623138428,-1.0543040037155151,0.09775571525096893
1683752236250354700,6.790354736328125,-0.23320890963077545,-1.3110744953155518,0.18834646046161652
1683752236260429800,6.800429931640625,-0.16734440624713898,-1.29900324344635,0.18889932334423065
1683752236270505000,6.8105048828125,-0.1434246301651001,-1.104764699935913,0.1258813440799713
1683752236280579800,6.820579833984375,-0.15588156878948212,-0.7028573155403137,-0.08969327807426453
1683752236290655700,6.83065576171875,-0.1278841346502304,-0.23539716005325317,-0.2742789089679718
1683752236300731000,6.84073095703125,-0.09385905414819717,0.18972617387771606,-0.35589203238487244
1683752236310805800,6.8508056640625,-0.08946490287780762,0.4989069402217865,-0.31711244583129883
1683752236320881000,6.860880859375,-0.07348966598510742,0.6929249167442322,-0.24615997076034546
1683752236330955800,6.870955810546875,-0.03724958375096321,1.0547587871551514,-0.2009330838918686
1683752236341031000,6.881031005859375,0.027121417224407196,1.424803376197815,-0.1133158802986145
1683752236351106000,6.89110595703125,0.15547439455986023,1.4396158456802368,0.016167141497135162
1683752236361181700,6.901181640625,0.3158869743347168,1.1940127611160278,0.09559085965156555
1683752236371256800,6.9112568359375,0.4446977376937866,0.786413311958313,0.14411528408527374
1683752236381332000,6.92133203125,0.5357812643051147,0.21768780052661896,0.21827979385852814
1683752236391406800,6.93140673828125,0.5340471267700195,-0.160697340965271,0.22150008380413055
1683752236401482000,6.94148193359375,0.4754751920700073,-0.2504570484161377,0.12730620801448822
1683752236411556900,6.951556884765625,0.3791608512401581,-0.2769901156425476,0.016276059672236443
1683752236421632800,6.9616328125,0.25189825892448425,-0.29440373182296753,0.09939251840114594
1683752236431708000,6.9717080078125,0.05555875971913338,0.1990794986486435,-0.1085185632109642
1683752236441783000,6.981782958984375,-0.14230932295322418,0.5879252552986145,-0.5071418285369873
1683752236451858000,6.99185791015625,-0.12693819403648376,0.5243225693702698,-0.7134655117988586
1683752236461932800,7.001932861328125,-0.07173246890306473,0.5228807330131531,-0.8259004950523376
1683752236472007700,7.012007568359375,0.035814352333545685,0.4624581038951874,-0.8074936270713806
1683752236482082800,7.022082763671875,0.1927480399608612,0.30083325505256653,-0.7003903985023499
1683752236492159000,7.032158935546875,0.35798633098602295,0.0948215126991272,-0.5231939554214478
1683752236502233900,7.04223388671875,0.4596807360649109,-0.07161779701709747,-0.3291451036930084
1683752236512308700,7.052308837890625,0.46045762300491333,-0.182813823223114,-0.17969830334186554
1683752236522384000,7.0623837890625,0.31201621890068054,-0.15561389923095703,-0.14068593084812164
1683752236532458800,7.072458740234375,0.24985840916633606,-0.03668297454714775,-0.18885257840156555
1683752236542534000,7.082533935546875,0.14144273102283478,0.043020911514759064,-0.2537442147731781
1683752236552608800,7.09260888671875,0.011441480368375778,0.0009157904423773289,-0.24382925033569336
1683752236562684700,7.1026845703125,-0.10411573946475983,-0.07286947965621948,-0.14647473394870758
1683752236572759800,7.112759765625,-0.1829022765159607,-0.0905240923166275,-0.0020891577005386353
1683752236582835000,7.1228349609375,-0.21470095217227936,-0.13412830233573914,0.1480364203453064
1683752236592909800,7.132909912109375,-0.1757698655128479,-0.2224126160144806,0.32824933528900146
1683752236602985000,7.14298486328125,-0.08476565033197403,-0.3348512649536133,0.561248779296875
1683752236613059800,7.153059814453125,-0.036232832819223404,-0.4437173306941986,0.7529873847961426
1683752236623135700,7.1631357421875,-0.07530166953802109,-0.6088064312934875,0.8809259533882141
1683752236633211000,7.1732109375,-0.17449083924293518,-0.7958852052688599,0.9449021816253662
1683752236643285800,7.18328564453125,-0.32380977272987366,-0.7904576659202576,0.9256200790405273
1683752236653361000,7.19336083984375,-0.5076296329498291,-0.6226809620857239,0.7760195732116699
1683752236663436000,7.20343603515625,-0.5644654631614685,-0.4131503701210022,0.5963670015335083
1683752236673511000,7.213510986328125,-0.5918220281600952,-0.2770577669143677,0.4851383864879608
1683752236683585800,7.223585693359375,-0.6068691611289978,-0.2206813097000122,0.41695666313171387
1683752236693662000,7.233661865234375,-0.5809321403503418,-0.22922393679618835,0.32651904225349426
1683752236703736800,7.24373681640625,-0.5250454545021057,-0.22640977799892426,0.16071011126041412
1683752236713812000,7.25381201171875,-0.4844912886619568,-0.19267284870147705,-0.09255744516849518
1683752236723886800,7.263886962890625,-0.4722468852996826,-0.16395758092403412,-0.34536173939704895
1683752236733961700,7.273961669921875,-0.46152418851852417,-0.21046650409698486,-0.469040185213089
1683752236744036900,7.284036865234375,-0.41171351075172424,-0.2773533761501312,-0.4094335734844208
1683752236754111700,7.29411181640625,-0.32150033116340637,-0.30694451928138733,-0.17631109058856964
1683752236764188000,7.30418798828125,-0.26767757534980774,-0.39270496368408203,0.15270648896694183
1683752236774262800,7.3142626953125,-0.1825391948223114,-0.4817584455013275,0.5057292580604553
1683752236784337700,7.324337646484375,-0.07622925937175751,-0.4680554270744324,0.8142431378364563
1683752236794412800,7.334412841796875,0.11871147155761719,-0.189370259642601,0.9620952606201172
1683752236804488000,7.344488037109375,0.29065340757369995,-0.052119191735982895,0.9760542511940002
1683752236814562800,7.354562744140625,0.3447263836860657,-0.0916953757405281,0.8656821846961975
1683752236824638700,7.364638671875,0.2901443839073181,-0.03921911492943764,0.5977884531021118
1683752236834713600,7.374713623046875,0.22625242173671722,0.052469804883003235,0.30386337637901306
1683752236844788500,7.38478857421875,0.218460813164711,0.1431453824043274,0.06585932523012161
1683752236854863600,7.394863525390625,0.2303631752729416,0.20848150551319122,-0.11164361983537674
1683752236864938800,7.404938720703125,0.2125016152858734,0.24891148507595062,-0.26651760935783386
1683752236875013600,7.415013671875,0.17728398740291595,0.29221582412719727,-0.3992467224597931
1683752236885088800,7.4250888671875,0.1277547925710678,0.36823228001594543,-0.47753459215164185
1683752236895164700,7.43516455078125,0.05446750670671463,0.46998926997184753,-0.5220292806625366
1683752236905239600,7.445239501953125,-0.016260460019111633,0.5292251706123352,-0.5591872930526733
1683752236915314700,7.455314697265625,-0.061822984367609024,0.46934372186660767,-0.5847911834716797
1683752236925389600,7.4653896484375,-0.06814906001091003,0.3555186092853546,-0.5657985806465149
1683752236935464700,7.475464599609375,-0.08674202859401703,0.23331467807292938,-0.49845218658447266
1683752236945539800,7.485539794921875,-0.11233500391244888,0.14500372111797333,-0.37650391459465027
1683752236955615500,7.495615478515625,-0.146253302693367,0.11038637161254883,-0.1979350745677948
1683752236965690600,7.505690673828125,-0.1613326519727707,0.11121167987585068,0.015240327455103397
1683752236975765800,7.515765869140625,-0.15647076070308685,0.1270231306552887,0.2024257630109787
1683752236985840600,7.525840576171875,-0.1451999992132187,0.13650691509246826,0.2932611107826233
1683752236995915800,7.535915771484375,-0.1367739886045456,0.10310395807027817,0.3148517608642578
1683752237005990700,7.54599072265625,-0.1132337749004364,0.040217407047748566,0.2943778932094574
1683752237016065500,7.5560654296875,-0.11985503882169724,-0.15308015048503876,0.26542338728904724
1683752237026141700,7.5661416015625,-0.15005181729793549,-0.32816967368125916,0.2756294310092926
1683752237036216800,7.576216796875,-0.1902584582567215,-0.38853180408477783,0.33193835616111755
1683752237046291700,7.586291748046875,-0.24815718829631805,-0.3595432937145233,0.36263102293014526
1683752237056366600,7.59636669921875,-0.30761829018592834,-0.24828684329986572,0.35128915309906006
1683752237066441500,7.60644140625,-0.32219403982162476,-0.16071464121341705,0.3200356364250183
1683752237076516600,7.6165166015625,-0.2940722703933716,-0.1307881474494934,0.3122430741786957
1683752237086592800,7.6265927734375,-0.23971208930015564,-0.1373712122440338,0.3142052888870239
1683752237096667600,7.636667724609375,-0.18304598331451416,-0.17938606441020966,0.3153604567050934
1683752237106742500,7.646742431640625,-0.15364547073841095,-0.2411074936389923,0.3032081723213196
1683752237116817700,7.656817626953125,-0.15271583199501038,-0.3329947888851166,0.2744888663291931
1683752237126892500,7.666892578125,-0.14990060031414032,-0.4186548590660095,0.23614893853664398
1683752237136967700,7.6769677734375,-0.1509210765361786,-0.39465174078941345,0.21660783886909485
1683752237147042800,7.687042724609375,-0.1454160511493683,-0.2359904795885086,0.23193299770355225
1683752237157118500,7.697118408203125,-0.12559287250041962,0.03368707373738289,0.28362998366355896
1683752237167193600,7.707193603515625,-0.08842499554157257,0.2513355016708374,0.3500761091709137
1683752237177268700,7.717268798828125,-0.0515083484351635,0.3159586787223816,0.3982080817222595
1683752237187343600,7.727343505859375,-0.009001106023788452,0.24214838445186615,0.42337921261787415
1683752237197418800,7.737418701171875,0.008843923918902874,0.1260119378566742,0.44328951835632324
1683752237207493600,7.74749365234375,0.015246429480612278,0.010610520839691162,0.47117653489112854
1683752237217568500,7.757568603515625,0.01687411591410637,-0.0683535560965538,0.5077015161514282
1683752237227644700,7.767644775390625,0.0355447381734848,-0.11120355129241943,0.5607051253318787
1683752237237719600,7.777719482421875,0.06652586907148361,-0.1230439618229866,0.6064488291740417
1683752237247794700,7.787794677734375,0.09269542247056961,-0.1075933650135994,0.6268954873085022
1683752237257869800,7.797869873046875,0.10947823524475098,-0.06971734762191772,0.6313692927360535
1683752237267944400,7.8079443359375,0.11451587080955505,-0.015354771167039871,0.6194311380386353
1683752237278019600,7.81801953125,0.1155867800116539,0.018170425668358803,0.5808016061782837
1683752237288095700,7.828095703125,0.11542965471744537,0.0030508616473525763,0.5031025409698486
1683752237298170600,7.838170654296875,0.10433700680732727,-0.002914095763117075,0.4167866110801697
1683752237308245800,7.848245849609375,0.09604126214981079,0.00605063745751977,0.3330056965351105
1683752237318320600,7.858320556640625,0.09911144524812698,0.004675406031310558,0.2661295235157013
1683752237328395500,7.8683955078125,0.11154734343290329,0.020074868574738503,0.24254268407821655
1683752237338470700,7.878470703125,0.13737136125564575,0.03342689573764801,0.24120056629180908
1683752237348545500,7.888545654296875,0.1494314968585968,0.03547007590532303,0.2370433658361435
1683752237358621700,7.89862158203125,0.14059695601463318,0.016264382749795914,0.19745779037475586
1683752237368696600,7.908696533203125,0.11657018959522247,-0.026410909369587898,0.12638814747333527
1683752237378771500,7.918771484375,0.08644141256809235,-0.08076439797878265,0.054035428911447525
1683752237388846600,7.9288466796875,0.05647791549563408,-0.12959906458854675,-0.012229076586663723
1683752237398921700,7.938921630859375,0.051022645086050034,-0.12825842201709747,-0.05729006230831146
1683752237408996600,7.94899658203125,0.06087980419397354,-0.0838901624083519,-0.08250540494918823
1683752237419072500,7.959072509765625,0.08016189932823181,-0.02874276414513588,-0.09624418616294861
1683752237429147600,7.969147705078125,0.09757177531719208,-0.0018570870161056519,-0.11314913630485535
1683752237439222500,7.979222412109375,0.09897340089082718,0.02012677490711212,-0.142353355884552
1683752237449297700,7.989297607421875,0.08232118934392929,0.025044037029147148,-0.20425428450107574
1683752237459372500,7.99937255859375,0.048416897654533386,0.010078687220811844,-0.29945892095565796
1683752237469447700,8.00944775390625,0.00024404458235949278,0.02082161232829094,-0.3976544737815857
1683752237479522800,8.019522705078124,-0.05092842876911163,0.07872964441776276,-0.4486289322376251
1683752237489598700,8.0295986328125,-0.08129405975341797,0.15738904476165771,-0.4412466585636139
1683752237499673600,8.039673583984374,-0.10500786453485489,0.20765939354896545,-0.34564900398254395
1683752237509748700,8.049748779296875,-0.12388700991868973,0.19014592468738556,-0.18300440907478333
1683752237519823600,8.05982373046875,-0.15039952099323273,0.09180790185928345,0.01124302763491869
1683752237529898800,8.069898681640625,-0.19266602396965027,-0.060084953904151917,0.18382199108600616
1683752237539973600,8.0799736328125,-0.22200851142406464,-0.21470649540424347,0.2930539846420288
1683752237550049500,8.090049560546875,-0.23808787763118744,-0.328551322221756,0.3115938603878021
1683752237560124700,8.100124755859374,-0.25809159874916077,-0.39605391025543213,0.2523864209651947
1683752237570199800,8.11019970703125,-0.296932190656662,-0.3928740918636322,0.15733662247657776
1683752237580274700,8.120274658203124,-0.35629069805145264,-0.3230321705341339,0.06720632314682007
1683752237590349600,8.130349609375,-0.42742663621902466,-0.22040541470050812,0.012473302893340588
1683752237600424400,8.140424560546874,-0.4754605293273926,-0.12421786785125732,0.0027201431803405285
1683752237610499600,8.15049951171875,-0.478940486907959,-0.07550998777151108,0.02662414312362671
1683752237620575700,8.16057568359375,-0.44634392857551575,-0.06067963317036629,0.058320362120866776
1683752237630650600,8.170650634765625,-0.3987481892108917,-0.05926736071705818,0.07756755501031876
1683752237640725500,8.1807255859375,-0.3482438921928406,-0.055662255734205246,0.10269297659397125
1683752237650800600,8.190800537109375,-0.31248003244400024,-0.05642285570502281,0.12301608920097351
1683752237660875500,8.20087548828125,-0.2921353876590729,-0.06711197644472122,0.12531612813472748
1683752237670950700,8.21095068359375,-0.2845453917980194,-0.09263784438371658,0.1025109589099884
1683752237681026800,8.22102685546875,-0.2662367522716522,-0.08955657482147217,0.059272732585668564
1683752237691101400,8.231101318359375,-0.2305019050836563,-0.0529884472489357,0.005469155497848988
1683752237701176600,8.241176513671874,-0.18139344453811646,0.05013822391629219,-0.05570194870233536
1683752237711251700,8.251251708984375,-0.13161498308181763,0.18015187978744507,-0.1392304003238678
1683752237721326600,8.26132666015625,-0.09198329597711563,0.2893446981906891,-0.24564890563488007
1683752237731401700,8.271401611328125,-0.0695648118853569,0.3499659597873688,-0.3630959391593933
1683752237741476600,8.2814765625,-0.06418959051370621,0.35033130645751953,-0.4625500440597534
1683752237751552500,8.291552490234375,-0.07504197210073471,0.308376669883728,-0.518609344959259
1683752237761627600,8.301627685546874,-0.08890462666749954,0.2217336744070053,-0.5248492360115051
1683752237771702500,8.31170263671875,-0.11928357183933258,0.1205575168132782,-0.46879157423973083
1683752237781777700,8.321777587890624,-0.14780576527118683,0.021995265036821365,-0.37185919284820557
1683752237791852800,8.331852783203125,-0.17094065248966217,-0.07964428514242172,-0.2788996696472168
1683752237801927700,8.341927734375,-0.17258615791797638,-0.22542598843574524,-0.2444937378168106
1683752237812003600,8.352003662109375,-0.16303898394107819,-0.375740110874176,-0.26849788427352905
1683752237822078700,8.36207861328125,-0.16323959827423096,-0.4900496304035187,-0.3197104334831238
1683752237832153600,8.372153564453125,-0.165121391415596,-0.5167520642280579,-0.3478512465953827
1683752237842228700,8.382228759765624,-0.16344662010669708,-0.46562817692756653,-0.34499871730804443
1683752237852303600,8.3923037109375,-0.1683763861656189,-0.3739967942237854,-0.31814393401145935
1683752237862378500,8.40237841796875,-0.17040331661701202,-0.2806842029094696,-0.2755046486854553
1683752237872453600,8.41245361328125,-0.16300132870674133,-0.22483983635902405,-0.2419365793466568
1683752237882529800,8.42252978515625,-0.1428627371788025,-0.2515598237514496,-0.2338002473115921
1683752237892604700,8.432604736328125,-0.10322556644678116,-0.3135318458080292,-0.23870046436786652
1683752237902679800,8.4426796875,-0.061147306114435196,-0.34400296211242676,-0.24105998873710632
1683752237912754400,8.45275439453125,-0.02043343149125576,-0.37285110354423523,-0.23574379086494446
1683752237922829600,8.46282958984375,0.017494408413767815,-0.4353182315826416,-0.22825682163238525
1683752237932904700,8.47290478515625,0.05572967976331711,-0.5043811798095703,-0.20942746102809906
1683752237942980600,8.482980712890624,0.10275884717702866,-0.5700661540031433,-0.1822626143693924
1683752237953055700,8.4930556640625,0.15095967054367065,-0.6188824772834778,-0.1499675214290619
1683752237963130600,8.503130615234374,0.19506651163101196,-0.6471399068832397,-0.11033197492361069
1683752237973205500,8.51320556640625,0.22250373661518097,-0.6415992379188538,-0.07297687977552414
1683752237983280600,8.52328076171875,0.21677252650260925,-0.6148248314857483,-0.0812281146645546
1683752237993355800,8.533355712890625,0.16538655757904053,-0.5320069193840027,-0.12878204882144928
1683752238003430700,8.5434306640625,0.06388310343027115,-0.36739110946655273,-0.18543851375579834
1683752238013506600,8.553506591796875,-0.02987481839954853,-0.2182343751192093,-0.24389196932315826
1683752238023581700,8.563581787109374,-0.11252691596746445,-0.16436901688575745,-0.2975306510925293
1683752238033656600,8.573656494140625,-0.22192132472991943,-0.13146886229515076,-0.31176871061325073
1683752238043731700,8.583731689453124,-0.35218966007232666,-0.05970330536365509,-0.26486891508102417
1683752238053806600,8.593806640625,-0.3382916748523712,-0.022793227806687355,-0.20931297540664673
1683752238063881700,8.6038818359375,-0.32989364862442017,0.05758228152990341,-0.14733852446079254
1683752238073957600,8.61395751953125,-0.36821919679641724,0.1302303969860077,-0.06989700347185135
1683752238084032500,8.624032470703124,-0.4012239873409271,0.15503934025764465,-0.02264779433608055
1683752238094107600,8.634107666015625,-0.4271698296070099,0.1712673157453537,0.03260853886604309
1683752238104182800,8.644182861328124,-0.4370916187763214,0.1627340167760849,0.10079342126846313
1683752238114257700,8.654257568359375,-0.42363491654396057,0.1250513643026352,0.16675245761871338
1683752238124332500,8.66433251953125,-0.38563182950019836,0.05338835343718529,0.20003117620944977
1683752238134408700,8.67440869140625,-0.3299078345298767,0.02084745094180107,0.23087245225906372
1683752238144483600,8.684483642578124,-0.2589103877544403,0.08564802259206772,0.28093934059143066
1683752238154558700,8.694558837890625,-0.16362330317497253,0.15101531147956848,0.33622148633003235
1683752238164633900,8.7046337890625,-0.05948425829410553,0.2036513388156891,0.3820982575416565
1683752238174708500,8.71470849609375,0.03186323493719101,0.2400948405265808,0.39564549922943115
1683752238184783600,8.72478369140625,0.1107003465294838,0.24269863963127136,0.3682633638381958
1683752238194858500,8.7348583984375,0.17967461049556732,0.20557257533073425,0.30046218633651733
1683752238204934700,8.7449345703125,0.2221735566854477,0.12155088782310486,0.2081523984670639
1683752238215009800,8.755009765625,0.24244846403598785,0.04616452008485794,0.1291995346546173
1683752238225084400,8.76508447265625,0.259466290473938,0.006364923901855946,0.08969556540250778
1683752238235159600,8.77515966796875,0.28423768281936646,-0.0024155178107321262,0.09750767797231674
1683752238245234700,8.785234619140626,0.31337404251098633,0.0012806705199182034,0.14311668276786804
1683752238255309600,8.7953095703125,0.3415849208831787,0.005108165554702282,0.203473761677742
1683752238265385700,8.8053857421875,0.3444788455963135,0.016727015376091003,0.23978862166404724
1683752238275460600,8.815460693359375,0.3445659279823303,0.016960307955741882,0.2846735417842865
1683752238285535500,8.825535400390624,0.3404942750930786,-0.007613209541887045,0.30687445402145386
1683752238295610600,8.835610595703125,0.3196108341217041,-0.01794867031276226,0.3060888648033142
1683752238305685500,8.845685546875,0.2832677960395813,0.02654261700809002,0.3069005310535431
1683752238315760600,8.8557607421875,0.23915040493011475,0.0786348432302475,0.29255300760269165
1683752238325835800,8.865835693359376,0.200189009308815,0.1237565204501152,0.2932450771331787
1683752238335911700,8.87591162109375,0.17228388786315918,0.16822730004787445,0.30294618010520935
1683752238345986600,8.885986572265624,0.13902831077575684,0.21680068969726562,0.3235635757446289
1683752238356061700,8.896061767578125,0.08271761983633041,0.2662752866744995,0.34670883417129517
1683752238366136600,8.906136474609376,0.027988376095891,0.2989613711833954,0.3615885376930237
1683752238376211700,8.916211669921875,-0.012861317954957485,0.2818622589111328,0.3502666652202606
1683752238386286800,8.926286865234376,-0.06131928414106369,0.20677682757377625,0.3414103090763092
1683752238396362500,8.936362548828125,-0.11553938686847687,0.12107577174901962,0.31947997212409973
1683752238406437600,8.946437744140624,-0.1410622000694275,0.10490770637989044,0.29446011781692505
1683752238416512800,8.9565126953125,-0.13148202002048492,0.07346402853727341,0.2514018416404724
1683752238426587600,8.966587646484374,-0.10509490221738815,0.05354947969317436,0.20395901799201965
1683752238436662800,8.976662841796875,-0.08624505251646042,0.017717713490128517,0.1552087962627411
1683752238446737400,8.9867373046875,-0.07925913482904434,0.011754612438380718,0.10460034012794495
1683752238456812500,8.9968125,-0.08097581565380096,0.03266016021370888,0.04478973150253296
1683752238466888700,9.006888671875,-0.08430764824151993,0.055476270616054535,-0.020919566974043846
1683752238476963600,9.016963623046875,-0.09255199134349823,0.07634453475475311,-0.08080554008483887
1683752238487038700,9.027038818359374,-0.09166494011878967,0.09493658691644669,-0.12365919351577759
1683752238497113600,9.037113525390625,-0.08092600852251053,0.08356568962335587,-0.14115643501281738
1683752238507188500,9.0471884765625,-0.06618724018335342,0.06201700493693352,-0.13534007966518402
1683752238517263600,9.057263671875,-0.053271446377038956,0.036852531135082245,-0.09979460388422012
1683752238527339800,9.06733984375,-0.043194081634283066,0.0045206681825220585,-0.04726535826921463
1683752238537414700,9.07741455078125,-0.03045831434428692,-0.009905675426125526,0.010175565257668495
1683752238547489500,9.087489501953126,-0.021636800840497017,-0.008509386330842972,0.05553891509771347
1683752238557564700,9.097564697265625,-0.012620402500033379,0.0013709408231079578,0.08975068479776382
1683752238567639600,9.1076396484375,-0.002904776483774185,0.00810316577553749,0.10469091683626175
1683752238577714700,9.117714599609375,0.0022782674059271812,0.007620334625244141,0.11663466691970825
1683752238587790800,9.127790771484374,0.006402975879609585,0.009858714416623116,0.11263097077608109
1683752238597865500,9.137865478515625,0.008463463746011257,-0.001285017468035221,0.08222459256649017
1683752238607940600,9.147940673828124,0.010029410943388939,-0.010831931605935097,0.041498396545648575
1683752238618015500,9.158015380859375,0.0037688519805669785,-0.014924943447113037,-0.001324965851381421
1683752238628090600,9.168090576171876,-0.001779154408723116,-0.02397223189473152,-0.03938889503479004
1683752238638165800,9.178165771484375,-0.003950962331146002,-0.04713587462902069,-0.06826075911521912
1683752238648241400,9.188241455078124,-0.005511059425771236,-0.07555656880140305,-0.0812017098069191
1683752238658316500,9.198316650390625,0.0005939708789810538,-0.09181542694568634,-0.06710053980350494
1683752238668391700,9.2083916015625,-0.0029554814100265503,-0.09819211810827255,-0.035084888339042664
1683752238678466600,9.218466552734375,-0.003973075188696384,-0.11024638265371323,-0.0010403681080788374
1683752238688541700,9.228541748046876,-0.009162838570773602,-0.11082054674625397,0.03306464105844498
1683752238698616800,9.238616943359375,-0.01753981038928032,-0.09557235240936279,0.06428541243076324
1683752238708691700,9.248691650390626,-0.02453097142279148,-0.08523211628198624,0.0757477879524231
1683752238718767600,9.258767578125,-0.028339292854070663,-0.07107581943273544,0.07726605236530304
1683752238728842800,9.2688427734375,-0.03420490771532059,-0.056850533932447433,0.055100198835134506
1683752238738917600,9.278917724609375,-0.037018273025751114,-0.05888678506016731,0.01859199069440365
1683752238748992800,9.28899267578125,-0.04276144132018089,-0.055810026824474335,-0.024467293173074722
1683752238759067600,9.299067626953125,-0.05040391534566879,-0.047751300036907196,-0.06578943133354187
1683752238769142500,9.309142578125,-0.05651058256626129,-0.03981988877058029,-0.09404408186674118
1683752238779218700,9.31921875,-0.059170547872781754,-0.03011559695005417,-0.11125822365283966
1683752238789293600,9.32929345703125,-0.06109016016125679,-0.03730239346623421,-0.11047428101301193
1683752238799368700,9.33936865234375,-0.058519147336483,-0.049926046282052994,-0.10017716884613037
1683752238809443800,9.34944384765625,-0.05905833840370178,-0.0643763467669487,-0.0827191099524498
1683752238819519000,9.35951904296875,-0.05771184340119362,-0.06509726494550705,-0.0666610524058342
1683752238829594000,9.369593994140626,-0.05919415131211281,-0.059593845158815384,-0.05311425402760506
1683752238839669200,9.379669189453125,-0.05182305723428726,-0.046136628836393356,-0.05527327582240105
1683752238849745200,9.3897451171875,-0.043402235954999924,-0.03725367411971092,-0.05555916950106621
1683752238859820000,9.399820068359375,-0.03455681353807449,-0.037092287093400955,-0.059996530413627625
1683752238869895200,9.409895263671874,-0.021308332681655884,-0.049778781831264496,-0.06750261783599854
1683752238879970000,9.419969970703125,-0.005797017831355333,-0.06549303233623505,-0.08534339815378189
1683752238890045200,9.430045166015624,-0.0030746294651180506,-0.0788399949669838,-0.10295721888542175
1683752238900120000,9.4401201171875,-0.00004954490577802062,-0.09774444252252579,-0.10865718126296997
1683752238910196000,9.450196044921874,0.007373850792646408,-0.10577412694692612,-0.11320455372333527
1683752238920271000,9.46027099609375,0.009394125081598759,-0.11305388063192368,-0.10983139276504517
1683752238930346200,9.47034619140625,-0.005178351886570454,-0.12995433807373047,-0.09638963639736176
1683752238940421000,9.480421142578125,-0.052803926169872284,-0.14948676526546478,-0.06588844954967499
1683752238950496300,9.490496337890624,-0.08193417638540268,-0.15428948402404785,-0.02742420695722103
1683752238960571100,9.500571044921875,-0.07109963893890381,-0.14693543314933777,0.01728707179427147
1683752238970647000,9.51064697265625,-0.04123172163963318,-0.1380407214164734,0.055478304624557495
1683752238980722200,9.52072216796875,-0.015005713328719139,-0.11634340137243271,0.08469132333993912
1683752238990797000,9.530797119140624,0.0036954968236386776,-0.11473780870437622,0.10026228427886963
1683752239000872200,9.5408720703125,0.010993357747793198,-0.1449367254972458,0.11050320416688919
1683752239010947300,9.550947265625,0.02259579487144947,-0.1561395674943924,0.1145298033952713
1683752239021022200,9.561022216796875,0.033019136637449265,-0.18137036263942719,0.1147359311580658
1683752239031098000,9.57109814453125,0.041647836565971375,-0.2198847383260727,0.11458000540733337
1683752239041173200,9.58117333984375,0.03947176784276962,-0.26003214716911316,0.11772919446229935
1683752239051248000,9.591248046875,0.033126138150691986,-0.2854490876197815,0.11583586037158966
1683752239061323300,9.6013232421875,0.02683228999376297,-0.31125298142433167,0.11069782078266144
1683752239071398100,9.611398193359374,0.02102559432387352,-0.30931368470191956,0.11287278681993484
1683752239081473000,9.62147314453125,0.015113908797502518,-0.2906300127506256,0.11403471976518631
1683752239091548200,9.631548095703126,0.0011841404484584928,-0.35587477684020996,0.11329962313175201
1683752239101624300,9.641624267578125,-0.008921224623918533,-0.40321114659309387,0.1352270245552063
1683752239111699200,9.65169921875,-0.014279874972999096,-0.44620469212532043,0.1738627701997757
1683752239121774000,9.661774169921875,-0.0024634297005832195,-0.475491464138031,0.20739063620567322
1683752239131849000,9.671848876953124,0.03876076266169548,-0.48415422439575195,0.23582294583320618
1683752239141924000,9.681924072265625,0.09563709050416946,-0.4839712679386139,0.2520117461681366
1683752239151999200,9.691999267578124,0.1391037553548813,-0.45185965299606323,0.2646634578704834
1683752239162075100,9.7020751953125,0.16437928378582,-0.3871394991874695,0.26414600014686584
1683752239172150000,9.71214990234375,0.1627102792263031,-0.33444780111312866,0.2617306113243103
1683752239182225200,9.72222509765625,0.1456412822008133,-0.2839966118335724,0.27887657284736633
1683752239192300000,9.732300048828124,0.13696162402629852,-0.21796032786369324,0.32305991649627686
1683752239202375200,9.742375244140625,0.15229983627796173,-0.1743854284286499,0.39030927419662476
1683752239212450000,9.752449951171876,0.18437106907367706,-0.19685958325862885,0.47223448753356934
1683752239222526000,9.76252587890625,0.21785685420036316,-0.3059450387954712,0.5530555248260498
1683752239232601000,9.77260107421875,0.244900181889534,-0.4863033592700958,0.6110082268714905
1683752239242676200,9.78267626953125,0.2645745575428009,-0.6893371939659119,0.6354984045028687
1683752239252751000,9.792751220703124,0.2601063847541809,-0.8671337962150574,0.6341316103935242
1683752239262826200,9.802826171875,0.23261699080467224,-1.01642906665802,0.6176376342773438
1683752239272901000,9.812901123046874,0.1760527342557907,-1.1297657489776611,0.5746294856071472
1683752239282976300,9.822976318359375,0.10748805105686188,-1.2088063955307007,0.5122087597846985
1683752239293052200,9.83305224609375,0.04044221714138985,-1.2689374685287476,0.44199466705322266
1683752239303127000,9.843126953125,-0.01453634724020958,-1.3050302267074585,0.35384297370910645
1683752239313202200,9.8532021484375,-0.05899883806705475,-1.2805030345916748,0.2735731303691864
1683752239323277300,9.86327734375,-0.08330471068620682,-1.1765044927597046,0.20906709134578705
1683752239333352200,9.873352294921874,-0.11801476031541824,-1.0187805891036987,0.14546671509742737
1683752239343427000,9.883427001953125,-0.1583898663520813,-0.8800879716873169,0.08115404844284058
1683752239353503200,9.893503173828124,-0.1860608011484146,-0.8163326978683472,0.011142997071146965
1683752239363578000,9.903578125,-0.2070678174495697,-0.8119243383407593,-0.06063212454319
1683752239373653200,9.9136533203125,-0.22829459607601166,-0.8323891162872314,-0.08026648312807083
1683752239383728000,9.92372802734375,-0.24865393340587616,-0.9019929766654968,-0.048273127526044846
1683752239393803000,9.933802978515626,-0.2636733949184418,-1.0088640451431274,0.014309090562164783
1683752239403878100,9.943878173828125,-0.2619793713092804,-1.1665273904800415,0.09022649377584457
1683752239413954300,9.953954345703124,-0.25745075941085815,-1.3873077630996704,0.18668529391288757
1683752239424029200,9.964029296875,-0.27303850650787354,-1.61940598487854,0.29179146885871887
1683752239434104300,9.974104248046874,-0.30987754464149475,-1.8365428447723389,0.40310120582580566
1683752239444179000,9.984178955078125,-0.3651304244995117,-2.0462827682495117,0.5039958357810974
1683752239454254000,9.994254150390624,-0.4125741720199585,-2.2406938076019287,0.5906350016593933
1683752239464329200,10.0043291015625,-0.39418289065361023,-2.47310471534729,0.656112790107727
1683752239474405000,10.014405029296874,-0.3404614329338074,-2.6007819175720215,0.7178878784179688
1683752239484480300,10.024480224609375,-0.24916110932826996,-2.6360394954681396,0.7946510910987854
1683752239494555100,10.03455517578125,-0.1653752326965332,-2.6103668212890625,0.8795631527900696
1683752239504630000,10.044630126953125,-0.1082104742527008,-2.532569169998169,0.9522461891174316
1683752239514705200,10.054705078125,-0.048317160457372665,-2.446901559829712,0.994555652141571
1683752239524780000,10.064780029296875,0.013590681366622448,-2.4143319129943848,0.9979844689369202
1683752239534855200,10.074855224609376,0.04035571217536926,-2.3701183795928955,0.9571525454521179
1683752239544931000,10.08493115234375,0.04430517926812172,-2.2602529525756836,0.8816465735435486
1683752239555006000,10.095005859375,0.06933602690696716,-2.0955138206481934,0.8103624582290649
1683752239565081000,10.1050810546875,0.10699072480201721,-1.9252665042877197,0.7419615983963013
1683752239575156200,10.11515625,0.13710740208625793,-1.7457993030548096,0.6863532066345215
1683752239585231000,10.125231201171875,0.17035776376724243,-1.5592906475067139,0.644908607006073
1683752239595306200,10.13530615234375,0.2280922681093216,-1.4148166179656982,0.6236203908920288
1683752239605382100,10.145382080078125,0.2751074433326721,-1.2541638612747192,0.5916123986244202
1683752239615457000,10.15545703125,0.3023676574230194,-1.0223913192749023,0.5401215553283691
1683752239625532200,10.1655322265625,0.31280991435050964,-0.7662442326545715,0.46773412823677063
1683752239635607300,10.175607177734374,0.3014233708381653,-0.5243468880653381,0.38227927684783936
1683752239645682200,10.18568212890625,0.27792951464653015,-0.2693694531917572,0.2802210748195648
1683752239655757300,10.19575732421875,0.2740211486816406,0.03959904611110687,0.18717429041862488
1683752239665833200,10.205833251953125,0.29931584000587463,0.3161163926124573,0.10237178206443787
1683752239675908000,10.215908203125,0.35397323966026306,0.49606671929359436,0.02446935325860977
1683752239685983200,10.225983154296875,0.4003990590572357,0.5917043089866638,-0.0875575840473175
1683752239696058000,10.23605810546875,0.4379766583442688,0.6369993090629578,-0.2249976396560669
1683752239706133200,10.24613330078125,0.4598952829837799,0.7091880440711975,-0.36189714074134827
1683752239716208000,10.2562080078125,0.4628303647041321,0.8394203186035156,-0.47828447818756104
1683752239726283000,10.266282958984375,0.4665910303592682,1.0498175621032715,-0.5466515421867371
1683752239736359200,10.276359130859374,0.4854329526424408,1.2871850728988647,-0.5711316466331482
1683752239746434300,10.286434326171875,0.5327929854393005,1.4731048345565796,-0.5628572106361389
1683752239756509200,10.29650927734375,0.6024362444877625,1.5718061923980713,-0.5482959151268005
1683752239766584000,10.306583984375,0.6925861239433289,1.617496371269226,-0.5571826100349426
1683752239776659200,10.3166591796875,0.7794910669326782,1.6233547925949097,-0.5824992060661316
1683752239786734000,10.326734130859375,0.8363996148109436,1.5910464525222778,-0.6291031837463379
1683752239796810200,10.336810302734374,0.8574041724205017,1.5206822156906128,-0.6906026005744934
1683752239806885000,10.346885009765625,0.8594329953193665,1.4292492866516113,-0.7773281931877136
1683752239816960000,10.3569599609375,0.8510449528694153,1.2899177074432373,-0.8760949373245239
1683752239827036200,10.3670361328125,0.8123425245285034,1.098654866218567,-0.9818964600563049
1683752239837111300,10.377111328125,0.7622156739234924,0.906417191028595,-1.044188141822815
1683752239847186200,10.387186279296875,0.715613603591919,0.7890748977661133,-1.0408203601837158
1683752239857262000,10.397261962890624,0.695953369140625,0.7345221638679504,-0.9918854832649231
1683752239867337200,10.407337158203125,0.6944300532341003,0.7486427426338196,-0.9147638082504272
1683752239877412000,10.417412109375,0.7183887362480164,0.7888466715812683,-0.8061532974243164
1683752239887487200,10.4274873046875,0.7563563585281372,0.8414081335067749,-0.7007988691329956
1683752239897562000,10.43756201171875,0.824822723865509,0.9244236350059509,-0.6372835636138916
1683752239907637000,10.447636962890625,0.8004438877105713,0.933221161365509,-0.6082375645637512
1683752239917712100,10.457712158203124,0.7653531432151794,0.9573773145675659,-0.5668070912361145
1683752239927788300,10.467788330078125,0.7458617687225342,0.973578929901123,-0.5454909205436707
1683752239937863200,10.47786328125,0.7068727612495422,1.027373194694519,-0.5305437445640564
1683752239947938300,10.487938232421875,0.6509117484092712,1.1046082973480225,-0.5057108402252197
1683752239958013200,10.49801318359375,0.5933079123497009,1.168946623802185,-0.46413862705230713
1683752239968088000,10.508088134765625,0.5519615411758423,1.2002424001693726,-0.4179234504699707
1683752239978163200,10.5181630859375,0.5217169523239136,1.1876851320266724,-0.3662523329257965
1683752239988239000,10.528239013671875,0.4872945249080658,1.1087919473648071,-0.33252206444740295
1683752239998314200,10.538314208984374,0.4407966136932373,0.9461899399757385,-0.30921947956085205
1683752240008389000,10.54838916015625,0.37856757640838623,0.7565227746963501,-0.28792324662208557
1683752240018464000,10.558464111328124,0.29727303981781006,0.580039381980896,-0.23118221759796143
1683752240028539100,10.5685390625,0.20579080283641815,0.48237913846969604,-0.1468321830034256
1683752240038614000,10.578614013671874,0.11175842583179474,0.4601891338825226,-0.05655628815293312
1683752240048690200,10.588690185546875,0.03896251320838928,0.4704183340072632,0.014379935339093208
1683752240058765000,10.59876513671875,-0.014510736800730228,0.49130821228027344,0.06745394319295883
1683752240068840000,10.60883984375,-0.054589442908763885,0.49277427792549133,0.09470953792333603
1683752240078915000,10.6189150390625,-0.10033226013183594,0.45614272356033325,0.10334079712629318
1683752240088990200,10.628990234375,-0.15654519200325012,0.3769472539424896,0.10219883173704147
1683752240099065000,10.639065185546874,-0.2172648012638092,0.27257612347602844,0.10374047607183456
1683752240109141000,10.64914111328125,-0.28102752566337585,0.1956307291984558,0.11357633024454117
1683752240119216000,10.659216064453124,-0.34088411927223206,0.1494797319173813,0.13842174410820007
1683752240129291000,10.669291015625,-0.4028790295124054,0.13496363162994385,0.15995873510837555
1683752240139366100,10.6793662109375,-0.4574304223060608,0.1467643678188324,0.17672306299209595
1683752240149441300,10.689441162109375,-0.5025992393493652,0.17977158725261688,0.197524756193161
1683752240159516200,10.69951611328125,-0.5286949276924133,0.19997327029705048,0.2114451676607132
1683752240169591300,10.70959130859375,-0.5474656820297241,0.21185070276260376,0.23433876037597656
1683752240179667200,10.719667236328124,-0.555882453918457,0.2276424616575241,0.2688850462436676
1683752240189742000,10.7297421875,-0.5547399520874023,0.24542252719402313,0.30881327390670776
1683752240199817200,10.739817138671874,-0.5360425710678101,0.2595372498035431,0.34299492835998535
1683752240209892000,10.74989208984375,-0.5026084184646606,0.3173864483833313,0.38493841886520386
1683752240219967200,10.75996728515625,-0.46999889612197876,0.4133739471435547,0.4224904179573059
1683752240230042000,10.7700419921875,-0.45237940549850464,0.4958677589893341,0.4401000440120697
1683752240240118000,10.780117919921874,-0.44525113701820374,0.5475085973739624,0.44329795241355896
1683752240250193200,10.790193115234375,-0.46035152673721313,0.5592390298843384,0.4505356252193451
1683752240260268300,10.800268310546874,-0.48583972454071045,0.5386184453964233,0.48335355520248413
1683752240270343200,10.81034326171875,-0.5170562863349915,0.4971735179424286,0.5317493081092834
1683752240280418000,10.82041796875,-0.5411807298660278,0.44320163130760193,0.5763741731643677
1683752240290493200,10.8304931640625,-0.5595850348472595,0.3879881799221039,0.604000985622406
1683752240300569000,10.840569091796874,-0.5765315294265747,0.33688557147979736,0.6140279769897461
1683752240310644200,10.850644287109375,-0.6090484261512756,0.3117309510707855,0.6224051713943481
1683752240320719400,10.86071923828125,-0.6502336859703064,0.32999226450920105,0.6326097846031189
1683752240330794000,10.8707939453125,-0.6881637573242188,0.3836080729961395,0.6410245895385742
1683752240340869000,10.880869140625,-0.7208491563796997,0.45931345224380493,0.6375120878219604
1683752240350944000,10.890944091796875,-0.7366379499435425,0.5180159211158752,0.6260911226272583
1683752240361020200,10.901020263671874,-0.7780605554580688,0.5770412087440491,0.6171088218688965
1683752240371095300,10.91109521484375,-0.7972108125686646,0.6200405955314636,0.6088857650756836
1683752240381170000,10.921169921875,-0.763947606086731,0.6080238819122314,0.6018509268760681
1683752240391245000,10.9312451171875,-0.7251362800598145,0.5822340846061707,0.5709622502326965
1683752240401320200,10.9413203125,-0.6937764883041382,0.5481682419776917,0.5242023468017578
1683752240411395000,10.95139501953125,-0.6819717288017273,0.5311785936355591,0.4704810380935669
1683752240421471200,10.96147119140625,-0.6747061014175415,0.5544746518135071,0.4430178999900818
1683752240431546000,10.971546142578125,-0.6700237393379211,0.6159195899963379,0.42966029047966003
1683752240441621000,10.98162109375,-0.6443544626235962,0.692571222782135,0.437185674905777
1683752240451696000,10.991696044921875,-0.5998815298080444,0.7645168304443359,0.45089614391326904
1683752240461771300,11.001771240234374,-0.5424044728279114,0.81689453125,0.4591706693172455
1683752240471846100,11.01184619140625,-0.47317609190940857,0.8115668892860413,0.4580439031124115
1683752240481921300,11.02192138671875,-0.40764784812927246,0.7449396252632141,0.4448738694190979
1683752240491997200,11.0319970703125,-0.34415382146835327,0.6417285799980164,0.4272940754890442
1683752240502072000,11.042072021484374,-0.28528425097465515,0.5463051199913025,0.3978249728679657
1683752240512147200,11.052147216796875,-0.23214249312877655,0.46235135197639465,0.3528343141078949
1683752240522222000,11.06222216796875,-0.1906745582818985,0.37983623147010803,0.2918974757194519
1683752240532297200,11.072297119140625,-0.16495083272457123,0.3016141355037689,0.21902191638946533
1683752240542372400,11.082372314453124,-0.15777084231376648,0.24689710140228271,0.13818582892417908
1683752240552448000,11.092447998046875,-0.15955090522766113,0.21834588050842285,0.06354621052742004
1683752240562523100,11.102523193359374,-0.15182709693908691,0.21461506187915802,0.004053561016917229
1683752240572598300,11.112598388671875,-0.12540294229984283,0.22113074362277985,-0.053306132555007935
1683752240582673200,11.122673095703124,-0.08767592161893845,0.25799503922462463,-0.10413522273302078
1683752240592748300,11.132748291015625,-0.04899989441037178,0.32584601640701294,-0.15683677792549133
1683752240602823200,11.1428232421875,-0.011384285986423492,0.3724430501461029,-0.22660480439662933
1683752240612899000,11.152899169921875,0.028990833088755608,0.3771373927593231,-0.3205403685569763
1683752240622974200,11.16297412109375,0.05759569630026817,0.36090782284736633,-0.43909549713134766
1683752240633049300,11.17304931640625,0.0670885369181633,0.33481070399284363,-0.5856894850730896
1683752240643124200,11.183124267578124,0.05737241357564926,0.2937934994697571,-0.7554516792297363
1683752240653199000,11.19319921875,0.027207856997847557,0.26447343826293945,-0.9422410130500793
1683752240663274000,11.20327392578125,-0.019151119515299797,0.2821778655052185,-1.1220128536224365
1683752240673350100,11.21335009765625,-0.06533512473106384,0.3182586431503296,-1.2811743021011353
1683752240683425300,11.22342529296875,-0.08478935807943344,0.39465299248695374,-1.4121553897857666
1683752240693500200,11.233500244140625,-0.045165784657001495,0.5269167423248291,-1.5147067308425903
1683752240703575000,11.243574951171874,0.04899384081363678,0.7011476755142212,-1.6241323947906494
1683752240713650200,11.253650146484375,0.1733541339635849,0.9034395217895508,-1.7497786283493042
1683752240723725000,11.26372509765625,0.2930808961391449,1.0691879987716675,-1.8936235904693604
1683752240733800200,11.27380029296875,0.38135430216789246,1.1524128913879395,-2.037713050842285
1683752240743876000,11.2838759765625,0.407540887594223,1.1098397970199585,-2.168541431427002
1683752240753951000,11.293950927734375,0.3771129250526428,0.9958421587944031,-2.236027240753174
1683752240764026000,11.304026123046874,0.32836413383483887,0.8793227672576904,-2.211069107055664
1683752240774101200,11.314101318359375,0.2687620520591736,0.760038435459137,-2.1076157093048096
1683752240784176000,11.324176025390624,0.20663674175739288,0.5900632739067078,-1.9738640785217285
1683752240794251300,11.334251220703125,0.14261993765830994,0.37470805644989014,-1.81833016872406
1683752240804327200,11.3443271484375,0.08533751964569092,0.14320212602615356,-1.6439504623413086
1683752240814402000,11.354402099609375,0.02125893533229828,-0.08422516286373138,-1.4328341484069824
1683752240824475600,11.3644755859375,-0.025672197341918945,-0.2838868796825409,-1.1926634311676025
1683752240834550800,11.37455078125,-0.04652261734008789,-0.4326353371143341,-0.9268055558204651
1683752240844625700,11.384625732421876,-0.05061638355255127,-0.5745402574539185,-0.6649466156959534
1683752240854700800,11.39470068359375,-0.05382682383060455,-0.7238954305648804,-0.41899728775024414
1683752240864777000,11.40477685546875,-0.06300657242536545,-0.8292412757873535,-0.18273569643497467
1683752240874851600,11.4148515625,-0.07215772569179535,-0.8966682553291321,0.03094436414539814
1683752240884926700,11.4249267578125,-0.09155618399381638,-0.9671754240989685,0.1936178058385849
1683752240895001600,11.435001708984375,-0.1208842471241951,-1.0386162996292114,0.30370303988456726
1683752240905076700,11.44507666015625,-0.1462664157152176,-1.1168211698532104,0.3804234564304352
1683752240915152000,11.45515185546875,-0.17081409692764282,-1.2069376707077026,0.44638144969940186
1683752240925227800,11.465227783203124,-0.19518889486789703,-1.2710604667663574,0.5035399198532104
1683752240935302700,11.475302734375,-0.23029281198978424,-1.3102515935897827,0.5551421642303467
1683752240945377800,11.485377685546876,-0.2647978663444519,-1.3593051433563232,0.5935393571853638
1683752240955452700,11.49545263671875,-0.26952096819877625,-1.4288506507873535,0.6348671317100525
1683752240965527800,11.50552783203125,-0.2537408471107483,-1.4768496751785278,0.6769181489944458
1683752240975603000,11.51560302734375,-0.216090127825737,-1.4706364870071411,0.7161834836006165
1683752240985678600,11.5256787109375,-0.17507559061050415,-1.4212020635604858,0.754061758518219
1683752240995753700,11.535753662109375,-0.15633651614189148,-1.3199529647827148,0.7757342457771301
1683752241005828900,11.545828857421874,-0.1648995280265808,-1.1720430850982666,0.7727524638175964
1683752241015903700,11.55590380859375,-0.20702488720417023,-0.9949929714202881,0.7450350522994995
1683752241025979000,11.565978759765626,-0.25897911190986633,-0.8035918474197388,0.6943713426589966
1683752241036053800,11.5760537109375,-0.3079088628292084,-0.6410508751869202,0.622382640838623
1683752241046128600,11.586128662109376,-0.3401975631713867,-0.513667106628418,0.5312462449073792
1683752241056204800,11.596204833984375,-0.34864482283592224,-0.4204154312610626,0.44431084394454956
1683752241066279700,11.60627978515625,-0.3161312937736511,-0.3546595573425293,0.3693913221359253
1683752241076354800,11.616354736328125,-0.25707942247390747,-0.2995150685310364,0.31722185015678406
1683752241086430000,11.626429931640626,-0.1860705018043518,-0.23735585808753967,0.2938716411590576
1683752241096504600,11.636504638671875,-0.1277206391096115,-0.19003227353096008,0.26317471265792847
1683752241106579700,11.646579833984376,-0.09658797085285187,-0.16193701326847076,0.22662945091724396
1683752241116655900,11.65665576171875,-0.09954460710287094,-0.12797291576862335,0.1802816540002823
1683752241126730800,11.666730712890624,-0.12094268947839737,-0.09710979461669922,0.14054232835769653
1683752241136806000,11.676805908203125,-0.15504445135593414,-0.08734612166881561,0.12642358243465424
1683752241146880800,11.686880859375,-0.17770205438137054,-0.08509600907564163,0.1563788503408432
1683752241156955600,11.69695556640625,-0.1811111718416214,-0.07155223935842514,0.2049645036458969
1683752241167030800,11.70703076171875,-0.1698605865240097,-0.05539936572313309,0.27397793531417847
1683752241177107000,11.71710693359375,-0.13682034611701965,-0.04819924384355545,0.34545692801475525
1683752241187181800,11.727181884765624,-0.09465121477842331,-0.07228407263755798,0.3847665786743164
1683752241197256700,11.737256591796875,-0.06290127336978912,-0.09270412474870682,0.4080343544483185
1683752241207331600,11.74733154296875,-0.04855658486485481,-0.09475528448820114,0.41132450103759766
1683752241217406700,11.75740673828125,-0.05076940730214119,-0.10379538685083389,0.4192306399345398
1683752241227481900,11.76748193359375,-0.06837038695812225,-0.13016682863235474,0.44034746289253235
1683752241237557800,11.777557861328125,-0.09147916734218597,-0.15277041494846344,0.4637174904346466
1683752241247632600,11.787632568359374,-0.11076471954584122,-0.17224982380867004,0.49312296509742737
1683752241257707800,11.797707763671875,-0.13740405440330505,-0.2015475183725357,0.5235176086425781
1683752241267782700,11.80778271484375,-0.1612323671579361,-0.24671980738639832,0.545293390750885
1683752241277857800,11.81785791015625,-0.18597553670406342,-0.28661397099494934,0.554424524307251
1683752241287933000,11.827932861328126,-0.20628654956817627,-0.3110809624195099,0.5558838248252869
1683752241298008600,11.838008544921875,-0.2147601991891861,-0.32149577140808105,0.5484773516654968
1683752241308083700,11.848083740234374,-0.2127474844455719,-0.3142111897468567,0.5415010452270508
1683752241318158800,11.858158935546875,-0.19960132241249084,-0.2827949523925781,0.5301709175109863
1683752241328233700,11.868233642578126,-0.18797044456005096,-0.20239602029323578,0.5099694728851318
1683752241338308900,11.878308837890625,-0.17265966534614563,-0.1075291633605957,0.4803820252418518
1683752241348383700,11.8883837890625,-0.16091880202293396,-0.026491833850741386,0.4333443343639374
1683752241358459000,11.898458984375,-0.14604903757572174,0.01663113571703434,0.3873462378978729
1683752241368534800,11.90853466796875,-0.1426781266927719,0.047260165214538574,0.3444550931453705
1683752241378609700,11.918609619140625,-0.14402808248996735,0.08320671319961548,0.305298388004303
1683752241388684800,11.928684814453124,-0.13694624602794647,0.12964825332164764,0.27003422379493713
1683752241398760000,11.938760009765625,-0.1218450665473938,0.20169740915298462,0.2441653311252594
1683752241408834800,11.948834716796876,-0.10898728668689728,0.29129043221473694,0.21304239332675934
1683752241418909700,11.95890966796875,-0.09204825013875961,0.3683910667896271,0.1796594113111496
1683752241428985900,11.96898583984375,-0.06671735644340515,0.43174976110458374,0.15170776844024658
1683752241439060700,11.979060791015625,-0.027569957077503204,0.4917507767677307,0.131911963224411
1683752241449135900,11.989135986328124,0.021622080355882645,0.5650521516799927,0.12340456247329712
1683752241459210800,11.999210693359375,0.07426878064870834,0.6436548233032227,0.11617594212293625
1683752241469285600,12.00928564453125,0.11581238359212875,0.7137271165847778,0.11275138705968857
1683752241479360800,12.01936083984375,0.1417747437953949,0.7694655060768127,0.10677658021450043
1683752241489437000,12.02943701171875,0.14896725118160248,0.7739867568016052,0.09644411504268646
1683752241499511800,12.03951171875,0.136078342795372,0.7468608617782593,0.07683952152729034
1683752241509586700,12.049586669921876,0.11801902204751968,0.7506087422370911,0.042769335210323334
1683752241519661600,12.05966162109375,0.11740676313638687,0.8118683695793152,0.00034677714575082064
1683752241529736700,12.06973681640625,0.1449231505393982,0.9423704147338867,-0.06268352270126343
1683752241539811800,12.079811767578125,0.20307086408138275,1.149231195449829,-0.14883333444595337
1683752241549887700,12.0898876953125,0.29028332233428955,1.395132064819336,-0.2358766794204712
1683752241559962600,12.099962646484375,0.36970651149749756,1.6776039600372314,-0.33633220195770264
1683752241570037800,12.110037841796874,0.42604419589042664,1.8423795700073242,-0.4598053991794586
1683752241580112600,12.120112548828125,0.4445006847381592,1.8814595937728882,-0.606862485408783
1683752241590187800,12.130187744140626,0.4211316704750061,1.8503097295761108,-0.752155601978302
1683752241600263000,12.140262939453125,0.3723047375679016,1.8508622646331787,-0.8972896337509155
1683752241610338600,12.150338623046874,0.3057771921157837,1.8958395719528198,-1.035351037979126
1683752241620413700,12.16041357421875,0.2295016199350357,1.9382493495941162,-1.1628772020339966
1683752241630488800,12.17048876953125,0.16497279703617096,1.951859951019287,-1.2535197734832764
1683752241640563700,12.180563720703125,0.11407499760389328,2.0371813774108887,-1.3923325538635254
1683752241650638800,12.190638916015626,0.11096825450658798,2.146576166152954,-1.469313383102417
1683752241660713700,12.200713623046875,0.14031974971294403,2.244544744491577,-1.5027611255645752
1683752241670789600,12.21078955078125,0.1918834000825882,2.3071494102478027,-1.5117833614349365
1683752241680864800,12.22086474609375,0.2623186707496643,2.318809986114502,-1.5029296875
1683752241690939600,12.230939697265624,0.32645025849342346,2.236058235168457,-1.492852807044983
1683752241701014800,12.241014892578125,0.36009982228279114,2.1099987030029297,-1.460279941558838
1683752241711090000,12.25108984375,0.39097797870635986,1.9686787128448486,-1.3866256475448608
1683752241721164800,12.261164794921875,0.41895899176597595,1.8057843446731567,-1.2791918516159058
1683752241731240700,12.27124072265625,0.4900171458721161,1.6011762619018555,-1.1549407243728638
1683752241741315800,12.28131591796875,0.5718928575515747,1.2756479978561401,-1.0033812522888184
1683752241751390700,12.291390625,0.6112499237060547,0.8741067051887512,-0.8495597243309021
1683752241761465900,12.3014658203125,0.5261483788490295,0.6294780373573303,-0.6850972771644592
1683752241771541000,12.311541015625,0.41872644424438477,0.5640864968299866,-0.5110845565795898
1683752241781615600,12.32161572265625,0.4910515248775482,0.43924522399902344,-0.40221455693244934
1683752241791690800,12.331690673828126,0.6361515522003174,0.1948442906141281,-0.4286290407180786
1683752241801767000,12.341766845703125,0.8089526295661926,0.2860303819179535,-0.581169605255127
1683752241811841800,12.351841796875,0.9830424189567566,1.1324650049209595,-0.8406075239181519
1683752241821917000,12.3619169921875,0.9298566579818726,1.9626988172531128,-1.0069220066070557
1683752241831991800,12.37199169921875,0.7271413207054138,2.2295687198638916,-1.0728484392166138
1683752241842066700,12.382066650390625,0.6211344599723816,1.8808223009109497,-1.036379098892212
1683752241852141800,12.392141845703126,0.4676712155342102,1.237173080444336,-0.871752917766571
1683752241862218000,12.402218017578125,0.2774735689163208,0.7789967060089111,-0.6089143753051758
1683752241872292900,12.41229296875,0.1330980509519577,0.46888038516044617,-0.3620869517326355
1683752241882367700,12.42236767578125,0.06737789511680603,0.18379299342632294,-0.09761693328619003
1683752241892443000,12.43244287109375,0.08475273102521896,0.023225676268339157,0.13824981451034546
1683752241902517800,12.442517822265625,0.15211713314056396,-0.07132239639759064,0.265899658203125
1683752241912593000,12.452593017578126,0.2104853242635727,-0.08693413436412811,0.2992873191833496
1683752241922669000,12.4626689453125,0.2588973045349121,-0.07741732895374298,0.29947054386138916
1683752241932743700,12.47274365234375,0.12849095463752747,-0.06953410804271698,0.2786110043525696
