time,seconds_elapsed,z,y,x
1680291039905411300,1.80841137695312,-0.148562431335449,0.686106383800506,-0.312309205532074
1680291039915411200,1.8184111328125,-0.120218276977539,0.625264227390289,-0.262654602527618
1680291039925411300,1.82841137695312,-0.0843692123889923,0.541523277759552,-0.206769153475761
1680291039935411200,1.8384111328125,-0.0474729537963867,0.468900144100189,-0.1557008177042
1680291039945411300,1.84841137695312,-0.00509636150673031,0.390604674816131,-0.0954869613051414
1680291039955411200,1.8584111328125,0.0450469478964805,0.333165913820266,-0.0314682871103286
1680291039965411300,1.86841137695312,0.107878804206848,0.322083055973053,0.0344353467226028
1680291039975411200,1.8784111328125,0.161966547369956,0.322571754455566,0.105121180415153
1680291039985411300,1.88841137695312,0.21280799806118,0.224501699209213,0.165003433823585
1680291039995411200,1.8984111328125,0.255289316177368,0.0441219247877597,0.219056278467178
1680291040005411300,1.90841137695312,0.294576674699783,-0.157638132572174,0.261048883199691
1680291040015411200,1.9184111328125,0.330041766166687,-0.319779217243194,0.307073235511779
1680291040025411300,1.92841137695312,0.350985705852508,-0.437292248010635,0.34941491484642
1680291040035411200,1.9384111328125,0.382768154144287,-0.450678914785385,0.399505853652954
1680291040045411300,1.94841137695312,0.408389598131179,-0.431515216827392,0.444622635841369
1680291040055411200,1.9584111328125,0.433312892913818,-0.39913934469223,0.481641054153442
1680291040065411300,1.96841137695312,0.460522562265396,-0.340129762887954,0.511835277080535
1680291040075411200,1.9784111328125,0.476823955774307,-0.284767925739288,0.536933064460754
1680291040085411300,1.98841137695312,0.486807227134704,-0.251083076000213,0.549359858036041
1680291040095411200,1.9984111328125,0.486178904771804,-0.270927459001541,0.563043236732482
1680291040105411300,2.00841137695312,0.479354679584503,-0.281277269124984,0.569274067878723
1680291040115411200,2.0184111328125,0.477225363254547,-0.222634196281433,0.587826907634735
1680291040125411300,2.02841137695312,0.474450290203094,-0.140010312199592,0.61400681734085
1680291040135411200,2.0384111328125,0.478848546743392,-0.059201568365097,0.645702004432678
1680291040145411300,2.04841137695312,0.483019858598709,0.0764105170965194,0.696944892406463
1680291040155411200,2.0584111328125,0.478813618421554,0.291592150926589,0.775187969207763
1680291040165411300,2.06841137695312,0.469476103782653,0.445722192525863,0.855717480182647
1680291040175411200,2.0784111328125,0.448479801416397,0.493212580680847,0.957976341247558
1680291040185411300,2.08841137695312,0.423905581235885,0.459998965263366,1.06458103656768
1680291040195411200,2.0984111328125,0.391913682222366,0.450190216302871,1.19602179527282
1680291040205411300,2.10841137695312,0.360916644334793,0.422055512666702,1.33990669250488
1680291040215411200,2.1184111328125,0.323723673820495,0.349310189485549,1.48553693294525
1680291040225411300,2.12841137695312,0.27021187543869,0.279566824436187,1.64518225193023
1680291040235411200,2.1384111328125,0.207240387797355,0.22048744559288,1.80573511123657
1680291040245411300,2.14841137695312,0.123464591801166,0.172351256012916,1.99438774585723
1680291040255411200,2.1584111328125,0.0340862795710563,0.13547246158123,2.21304249763488
1680291040265411300,2.16841137695312,-0.0652578622102737,0.261363059282302,2.45623683929443
1680291040275411200,2.1784111328125,-0.156782925128936,0.34379494190216,2.74330854415893
1680291040285411300,2.18841137695312,-0.249075934290885,0.498029708862304,3.03421998023986
1680291040295411200,2.1984111328125,-0.344737440347671,0.699458122253418,3.37633943557739
1680291040305411300,2.20841137695312,-0.436943173408508,0.915948808193206,3.73332905769348
1680291040315411200,2.2184111328125,-0.543844580650329,0.867463529109954,4.09724760055542
1680291040325411300,2.22841137695312,-0.685774743556976,0.557074189186096,4.43968105316162
1680291040335411200,2.2384111328125,-0.840672731399536,0.166452050209045,4.78213214874267
1680291040345411300,2.24841137695312,-1.03065180778503,-0.22722440958023,5.10557651519775
1680291040355411200,2.2584111328125,-1.22092759609222,-0.504312872886657,5.42666482925415
1680291040365411300,2.26841137695312,-1.42057585716247,-0.6446373462677,5.72747230529785
1680291040375411200,2.2784111328125,-1.62350523471832,-0.644061386585235,6.04274892807006
1680291040385411300,2.28841137695312,-1.82760405540466,-0.485253900289535,6.34989166259765
1680291040395411200,2.2984111328125,-2.02299356460571,-0.38552576303482,6.66099691390991
1680291040405411300,2.30841137695312,-2.24712896347045,-0.499233990907669,6.94394969940185
1680291040415411200,2.3184111328125,-2.49520993232727,-0.699946820735931,7.2312307357788
1680291040425411300,2.32841137695312,-2.74889349937438,-0.939475834369659,7.51360750198364
1680291040435411200,2.3384111328125,-2.98519372940063,-1.16785216331481,7.79242372512817
1680291040445411300,2.34841137695312,-3.18381214141845,-1.13287580013275,8.07073402404785
1680291040455411200,2.3584111328125,-3.3291630744934,-0.813951730728149,8.4200267791748
1680291040465411300,2.36841137695312,-3.4049801826477,-0.429612785577774,8.75216293334961
1680291040475411200,2.3784111328125,-3.43669295310974,-0.088069312274456,9.124267578125
1680291040485411300,2.38841137695312,-3.42775678634643,0.0512777715921402,9.46860313415527
1680291040495411200,2.3984111328125,-3.40969276428222,0.144809961318969,9.82742500305175
1680291040505411300,2.40841137695312,-3.36572790145874,0.130236461758613,10.1286344528198
1680291040515411200,2.4184111328125,-3.3199303150177,-0.0751713290810585,10.3958616256713
1680291040525411300,2.42841137695312,-3.26538872718811,-0.340950071811676,10.5737800598144
1680291040535411200,2.4384111328125,-3.24325799942016,-0.654585719108581,10.6677494049072
1680291040545411300,2.44841137695312,-3.2247576713562,-0.857986390590667,10.6652879714965
1680291040555411200,2.4584111328125,-3.23041248321533,-0.915285587310791,10.6020545959472
1680291040565411300,2.46841137695312,-3.26449871063232,-1.10763823986053,10.4150075912475
1680291040575411200,2.4784111328125,-3.3010458946228,-1.42073285579681,10.0970268249511
1680291040585411300,2.48841137695312,-3.35689640045166,-1.52442288398742,9.72281074523925
1680291040595411200,2.4984111328125,-3.41019892692565,-1.40354144573211,9.27523803710937
1680291040605411300,2.50841137695312,-3.47404289245605,-1.30011320114135,8.82625198364257
1680291040615411200,2.5184111328125,-3.52244091033935,-1.38310360908508,8.3021821975708
1680291040625411300,2.52841137695312,-3.58335304260253,-1.22708868980407,7.81076717376709
1680291040635411200,2.5384111328125,-3.64665603637695,-0.950645923614502,7.31226634979248
1680291040645411300,2.54841137695312,-3.65196180343627,-0.68635070323944,6.81189775466918
1680291040655411200,2.5584111328125,-3.66011261940002,-0.510264456272125,6.29952144622802
1680291040665411300,2.56841137695312,-3.6294994354248,-0.387166380882263,5.78587102890014
1680291040675411200,2.5784111328125,-3.5896360874176,-0.307858616113662,5.24761152267456
1680291040685414400,2.58841430664062,-3.51915979385375,-0.0915599688887596,4.76228809356689
1680291040695411200,2.5984111328125,-3.42135143280029,0.260507851839065,4.28515005111694
1680291040705411300,2.60841137695312,-3.28874135017395,0.54552012681961,3.81736660003662
1680291040715411200,2.6184111328125,-3.15883660316467,0.791227579116821,3.34860610961914
1680291040725411300,2.62841137695312,-3.02697682380676,1.02752768993377,2.9051353931427
1680291040735411200,2.6384111328125,-2.89749097824096,1.11969852447509,2.40736746788024
1680291040745411300,2.64841137695312,-2.78013491630554,1.25691628456115,1.93021202087402
1680291040755411200,2.6584111328125,-2.62335205078125,1.56718349456787,1.40336692333221
1680291040765411300,2.66841137695312,-2.42288351058959,2.10950970649719,0.921027719974517
1680291040775411200,2.6784111328125,-2.12235522270202,2.71705865859985,0.413381218910217
1680291040785411300,2.68841137695312,-1.74529433250427,3.11909532546997,-0.106220737099647
1680291040795411200,2.6984111328125,-1.3276720046997,3.1819097995758,-0.668600738048553
1680291040805411300,2.70841137695312,-0.870238602161407,3.05163836479187,-1.21705293655395
1680291040815411200,2.7184111328125,-0.474938988685607,2.58603692054748,-1.77779233455657
1680291040825412900,2.72841284179687,0.0616275742650032,1.60704684257507,-2.60808038711547
1680291040835411200,2.7384111328125,0.697084486484527,0.797528207302093,-3.31019139289855
1680291040845411300,2.74841137695312,1.50086092948913,-0.0309446882456541,-4.14943313598632
1680291040855411200,2.7584111328125,2.42572832107543,-0.503370404243469,-5.11240100860595
1680291040865412900,2.76841284179687,3.56352591514587,-0.640221655368804,-6.22834682464599
1680291040875411200,2.7784111328125,4.82979726791381,-0.39301323890686,-7.60017585754394
1680291040885411300,2.78841137695312,6.1459150314331,0.0261450316756963,-9.04595375061035
1680291040895411200,2.7984111328125,7.41227388381958,0.674796640872955,-10.6729850769042
1680291040905411300,2.80841137695312,8.68203544616699,0.868371129035949,-12.3257942199707
1680291040915413000,2.8184130859375,9.93902206420898,0.961309909820556,-13.9664907455444
1680291040925411300,2.82841137695312,11.0947265625,1.10383343696594,-15.2899742126464
1680291040935411200,2.8384111328125,11.7239179611206,0.541767656803131,-13.3618040084838
1680291040945411300,2.84841137695312,11.4312953948974,-0.746494770050048,-15.2449102401733
1680291040955411200,2.8584111328125,12.4771671295166,2.75954008102417,-15.8847646713256
1680291040965411300,2.86841137695312,11.3509407043457,5.0570044517517,-15.419355392456
1680291040975411200,2.8784111328125,9.12583827972412,7.06790256500244,-16.0519504547119
1680291040985411300,2.88841137695312,6.96978044509887,6.83954381942749,-15.9282760620117
1680291040995411200,2.8984111328125,5.43436193466186,3.23664331436157,-15.780306816101
1680291041005411300,2.90841137695312,4.74195480346679,-0.284890085458755,-14.878547668457
1680291041015411200,2.9184111328125,4.33211660385131,-2.56502318382263,-13.6327314376831
1680291041025411300,2.92841137695312,4.10337400436401,-2.63741946220397,-12.1903047561645
1680291041035411200,2.9384111328125,3.99811291694641,-1.45307385921478,-10.5479669570922
1680291041045422300,2.94842236328125,3.88211846351623,0.552518904209137,-9.07106971740722
1680291041055411200,2.9584111328125,3.75854897499084,3.02093791961669,-7.69257354736328
1680291041065411300,2.96841137695312,3.59017705917358,4.94116687774658,-6.59072971343994
1680291041075411200,2.9784111328125,3.43869996070861,5.56075859069824,-5.81974792480468
1680291041085411300,2.98841137695312,3.30319261550903,4.95715379714965,-5.34521055221557
1680291041095411200,2.9984111328125,3.14782357215881,3.82188701629638,-5.02571058273315
1680291041105411300,3.00841137695312,3.01203680038452,2.50166773796081,-4.82599258422851
1680291041115411200,3.0184111328125,2.93047761917114,0.98096227645874,-4.66027355194091
1680291041125411300,3.02841137695312,2.8690071105957,-0.348350256681442,-4.47731065750122
1680291041135411200,3.0384111328125,2.85706901550292,-1.15062570571899,-4.28883266448974
1680291041145416000,3.048416015625,2.80652427673339,-1.24061489105224,-4.05258464813232
1680291041155411200,3.0584111328125,2.74564719200134,-1.20033276081085,-3.86349582672119
1680291041165411300,3.06841137695312,2.64616346359252,-0.91950923204422,-3.65175247192382
1680291041175411200,3.0784111328125,2.51437377929687,-0.462006092071533,-3.47987246513366
1680291041185417500,3.08841748046875,2.33313870429992,0.0112224668264389,-3.29804396629333
1680291041195411200,3.0984111328125,2.11109781265258,0.614827156066894,-3.09130978584289
1680291041205411300,3.10841137695312,1.87591481208801,1.09418177604675,-2.8915045261383
1680291041215411200,3.1184111328125,1.62266755104064,1.52131628990173,-2.67618322372436
1680291041225411300,3.12841137695312,1.38296401500701,1.79037618637084,-2.47611594200134
1680291041235411200,3.1384111328125,1.15395939350128,1.93616354465484,-2.27252340316772
1680291041245411300,3.14841137695312,0.95033174753189,1.87186563014984,-2.09610557556152
1680291041255411200,3.1584111328125,0.771313369274139,1.69270753860473,-1.91405022144317
1680291041265411300,3.16841137695312,0.635683834552764,1.4344162940979,-1.74669063091278
1680291041275413000,3.1784130859375,0.530265927314758,1.17865574359893,-1.559504032135
1680291041285411300,3.18841137695312,0.454850256443023,0.935147404670715,-1.3787053823471
1680291041295411200,3.1984111328125,0.403345584869384,0.721798360347747,-1.18621301651
1680291041305411300,3.20841137695312,0.367234736680984,0.553758084774017,-1.01389670372009
1680291041315411200,3.2184111328125,0.346168607473373,0.369556009769439,-0.828350722789764
1680291041325417500,3.22841748046875,0.330181390047073,0.344248741865158,-0.649297356605529
1680291041335411200,3.2384111328125,0.324194908142089,0.459737181663513,-0.464693903923034
1680291041345411300,3.24841137695312,0.310354441404342,0.557039260864257,-0.288607656955719
1680291041355411200,3.2584111328125,0.302256107330322,0.695792973041534,-0.10815805196762
1680291041365411300,3.26841137695312,0.297142297029495,0.755570471286773,0.0545589923858642
1680291041375411200,3.2784111328125,0.277734249830245,0.839398622512817,0.236701548099517
1680291041385411300,3.28841137695312,0.260246038436889,0.941622555255889,0.416644990444183
1680291041395411200,3.2984111328125,0.233123630285263,1.04787826538085,0.620394706726074
1680291041405411300,3.30841137695312,0.200102001428604,1.09814369678497,0.802799105644226
1680291041415411200,3.3184111328125,0.169331848621368,1.11187946796417,0.981450974941253
1680291041425411300,3.32841137695312,0.138753682374954,1.07852625846862,1.12914073467254
1680291041435411200,3.3384111328125,0.10920525342226,1.02911591529846,1.25239586830139
1680291041445411300,3.34841137695312,0.0765850469470024,1.03646373748779,1.35146081447601
1680291041455411200,3.3584111328125,0.0580321960151195,1.14078211784362,1.44673836231231
1680291041465414400,3.36841430664062,0.0471064373850822,1.24585092067718,1.51470148563385
1680291041475411200,3.3784111328125,0.0348193198442459,1.37366139888763,1.58838927745819
1680291041485411300,3.38841137695312,0.0283441469073295,1.49246597290039,1.64387321472167
1680291041495411200,3.3984111328125,0.013613567687571,1.55531525611877,1.68994998931884
1680291041505420800,3.4084208984375,-0.00479965563863515,1.56894624233245,1.72164511680603
1680291041515411200,3.4184111328125,-0.0256039798259735,1.56894624233245,1.74904680252075
1680291041525411300,3.42841137695312,-0.0471587963402271,1.55203402042388,1.77096807956695
1680291041535411200,3.4384111328125,-0.0708778202533721,1.55203402042388,1.76936244964599
1680291041545411300,3.44841137695312,-0.0933751165866851,1.56138896942138,1.76227641105651
1680291041555411200,3.4584111328125,-0.122260317206382,1.56559526920318,1.7399536371231
1680291041565411300,3.46841137695312,-0.154828161001205,1.53325426578521,1.70694947242736
1680291041575411200,3.4784111328125,-0.201341181993484,1.51519012451171,1.66429364681243
1680291041585411300,3.48841137695312,-0.261048883199691,1.44040274620056,1.61846125125885
1680291041595413000,3.4984130859375,-0.327458679676055,1.33730614185333,1.56077814102172
1680291041605411300,3.50841137695312,-0.405527263879776,1.26555573940277,1.51059997081756
1680291041615411200,3.5184111328125,-0.484503388404846,1.18420588970184,1.45529043674469
1680291041625411300,3.52841137695312,-0.567615985870361,1.04040825366973,1.39816582202911
1680291041635411200,3.5384111328125,-0.641199052333831,0.818751394748687,1.3191373348236
1680291041645411300,3.54841137695312,-0.704606890678405,0.638790488243103,1.24672353267669
1680291041655411200,3.5584111328125,-0.743510246276855,0.525850236415863,1.17132532596588
1680291041665411300,3.56841137695312,-0.763738632202148,0.467957675457,1.10287356376647
1680291041675411200,3.5784111328125,-0.776531875133514,0.457258820533752,1.02901124954223
1680291041685411300,3.58841137695312,-0.771592617034912,0.420973420143127,0.959913611412048
1680291041695419100,3.59841918945312,-0.769864737987518,0.21404717862606,0.866939961910247
1680291041705411300,3.60841137695312,-0.757891774177551,-0.0262497514486312,0.775798857212066
1680291041715411200,3.6184111328125,-0.74885094165802,-0.189106419682502,0.689841389656066
1680291041725411300,3.62841137695312,-0.744574904441833,-0.227049887180328,0.622558951377868
1680291041735411200,3.6384111328125,-0.728605151176452,-0.185650676488876,0.5663942694664
1680291041745411300,3.64841137695312,-0.708132445812225,-0.149731799960136,0.516983985900878
1680291041755411200,3.6584111328125,-0.683697819709777,-0.141389116644859,0.475724399089813
1680291041765411300,3.66841137695312,-0.672353208065033,-0.206612080335617,0.434953510761261
1680291041775411200,3.6784111328125,-0.658250927925109,-0.361579865217208,0.380813390016555
1680291041785411300,3.68841137695312,-0.655353665351867,-0.450068056583404,0.336708903312683
1680291041795411200,3.6984111328125,-0.658146202564239,-0.44750240445137,0.30468213558197
1680291041805411300,3.70841137695312,-0.661026000976562,-0.402333289384841,0.270456224679946
1680291041815411200,3.7184111328125,-0.659385383129119,-0.292115747928619,0.258081823587417
1680291041825411300,3.72841137695312,-0.651234686374664,-0.175807014107704,0.24841271340847
1680291041835411200,3.7384111328125,-0.641513228416442,-0.215897232294082,0.23211133480072
1680291041845411300,3.74841137695312,-0.626625537872314,-0.351718753576278,0.20978857576847
1680291041855411200,3.7584111328125,-0.612575650215148,-0.419001191854476,0.197553813457489
1680291041865411300,3.76841137695312,-0.601213574409484,-0.406818807125091,0.200468510389328
1680291041875419100,3.77841918945312,-0.580950319766998,-0.300161719322204,0.207065865397453
1680291041885411300,3.78841137695312,-0.57330572605133,-0.17636552453041,0.222791284322738
