time,seconds_elapsed,z,y,x
1680291327814560300,3.40056030273437,0.613900005817413,0.0465999990701675,-0.101899996399879
1680291327824565000,3.41056494140625,0.720299959182739,0.161200001835823,-0.156700000166893
1680291327834560300,3.42056030273437,0.882599949836731,0.205399990081787,-0.221299991011619
1680291327844560400,3.43056030273437,0.952699959278106,0.119699999690055,-0.305099993944168
1680291327854560300,3.44056030273437,1.0378999710083,-0.12559999525547,-0.288199990987777
1680291327864563500,3.4505634765625,1.15689992904663,-0.34469997882843,-0.229999989271163
1680291327874560300,3.46056030273437,1.34850001335144,-0.459299981594085,-0.157899990677833
1680291327884560400,3.47056030273437,1.60280001163482,-0.528299987316131,-0.133399993181228
1680291327894560300,3.48056030273437,1.93999993801116,-0.727899968624115,-0.167099997401237
1680291327904560400,3.49056030273437,2.17350006103515,-0.773899972438812,-0.248300001025199
1680291327914560300,3.50056030273437,2.48989987373352,-0.724999964237213,-0.299600005149841
1680291327924560400,3.51056030273437,2.78020000457763,-0.689799964427948,-0.332599997520446
1680291327934560300,3.52056030273437,2.88809990882873,-0.510999977588653,-0.355299979448318
1680291327944560400,3.53056030273437,3.08619999885559,-0.160699993371963,-0.275999993085861
1680291327954561800,3.54056176757812,3.41299986839294,0.291999995708465,0.00460000010207295
1680291327964560400,3.55056030273437,3.59270000457763,0.551999986171722,0.145099997520446
1680291327974560300,3.56056030273437,3.75169992446899,0.588800013065338,0.394400000572204
1680291327984560400,3.57056030273437,3.65289998054504,0.626100003719329,0.708099961280822
1680291327994560300,3.58056030273437,3.67890000343322,0.506299972534179,1.22239995002746
1680291328004560400,3.59056030273437,3.60489988327026,0.0429999977350235,1.64749991893768
1680291328014560300,3.60056030273437,3.67839980125427,-0.252799987792968,2.12170004844665
1680291328024560400,3.61056030273437,3.85179996490478,-0.400099992752075,2.36999988555908
1680291328034560300,3.62056030273437,4.10629987716674,-0.594399988651275,2.42549991607666
1680291328044560400,3.63056030273437,4.46140003204345,-0.972699999809265,2.29979991912841
1680291328054564900,3.64056494140625,5.39939975738525,-1.151899933815,2.1605999469757
1680291328064560400,3.65056030273437,6.37999963760376,-1.00619995594024,2.2985999584198
1680291328074560300,3.66056030273437,6.99219989776611,-0.761699974536895,2.25219988822937
1680291328084560400,3.67056030273437,7.35319995880126,-0.783699989318847,2.25899982452392
1680291328094566700,3.68056665039062,7.58039999008178,-0.857800006866455,2.1793999671936
1680291328104560400,3.69056030273437,7.65289974212646,-0.800700008869171,2.27439999580383
1680291328114560300,3.70056030273437,7.66890001296997,-0.770899951457977,2.54320001602172
1680291328124560400,3.71056030273437,7.42119979858398,-0.938099980354309,2.81909990310668
1680291328134560300,3.72056030273437,7.82439994812011,-1.25569999217987,3.27309989929199
1680291328144568000,3.73056811523437,8.51369953155517,-1.9319999217987,3.48729991912841
1680291328154560300,3.74056030273437,9.07919979095459,-2.4993999004364,3.65439987182617
1680291328164560400,3.75056030273437,9.58139991760253,-2.68209981918334,3.79989981651306
1680291328174560300,3.76056030273437,9.72919940948486,-2.85319995880126,3.79489994049072
1680291328184563500,3.7705634765625,9.71979999542236,-2.85019993782043,3.53269982337951
1680291328194560300,3.78056030273437,9.82179927825927,-3.15469980239868,3.49759984016418
1680291328204560400,3.79056030273437,10.175799369812,-4.15149974822998,3.3769998550415
1680291328214560300,3.80056030273437,10.5707998275756,-4.53609991073608,3.34719991683959
1680291328224560400,3.81056030273437,10.6680994033813,-4.72059965133667,3.53259992599487
1680291328234568200,3.82056811523437,11.2829999923706,-5.17560005187988,3.6243999004364
1680291328244560400,3.83056030273437,11.7953996658325,-5.62949991226196,3.8208999633789
1680291328254560300,3.84056030273437,11.8940992355346,-6.34089994430542,3.74459981918334
1680291328264560400,3.85056030273437,11.9055995941162,-7.22209978103637,3.74059987068176
1680291328274563300,3.86056323242187,12.0736999511718,-8.0507001876831,3.28289985656738
1680291328284560400,3.87056030273437,12.2058000564575,-8.4660997390747,2.40059995651245
1680291328294560300,3.88056030273437,11.997799873352,-9.2455997467041,1.87369990348815
1680291328304560400,3.89056030273437,11.2797994613647,-10.1707000732421,1.72289991378784
1680291328314560300,3.90056030273437,11.7438993453979,-11.7930994033813,1.91310000419616
1680291328324560400,3.91056030273437,10.4608001708984,-11.9244995117187,1.39529991149902
1680291328334560300,3.92056030273437,10.0829000473022,-12.205599784851,1.77049994468688
1680291328344560400,3.93056030273437,9.57469940185546,-13.0865993499755,1.94470000267028
1680291328354560300,3.94056030273437,9.91199970245361,-14.4245996475219,1.80859994888305
1680291328364560400,3.95056030273437,9.61310005187988,-15.1767997741699,1.57779991626739
1680291328374560300,3.96056030273437,9.34579944610595,-16.1001987457275,1.82079994678497
1680291328384560400,3.97056030273437,8.8257999420166,-17.4545993804931,1.96529996395111
1680291328394560300,3.98056030273437,8.17630004882812,-17.7789001464843,2.45420002937316
1680291328404560400,3.99056030273437,7.46849966049194,-17.9260997772216,3.00899982452392
1680291328414560300,4.00056030273437,6.95510005950927,-18.2647991180419,3.12569999694824
1680291328424560400,4.01056030273437,5.91269969940185,-18.2047996520996,2.90649986267089
1680291328434560300,4.02056030273437,5.00449991226196,-17.9153995513916,2.79779982566833
1680291328444560400,4.03056030273437,5.26769971847534,-17.5403003692626,3.05970001220703
1680291328454560300,4.04056030273437,4.64299964904785,-17.1681995391845,4.03730010986328
1680291328464565000,4.05056494140625,4.12199974060058,-16.9350986480712,4.24599981307983
1680291328474560300,4.06056030273437,3.2123999595642,-15.9072999954223,4.4180998802185
1680291328484560400,4.07056030273437,2.50919985771179,-15.2934999465942,5.54749965667724
1680291328494560300,4.08056030273437,2.44700002670288,-14.9303998947143,5.97489976882934
1680291328504566500,4.09056640625,2.56690001487731,-14.8246994018554,5.01149988174438
1680291328514560300,4.10056030273437,2.61220002174377,-14.9926996231079,3.27090001106262
1680291328524560400,4.11056030273437,2.18409991264343,-14.0592994689941,1.3208999633789
1680291328534560300,4.12056030273437,1.60889995098114,-13.0652999877929,2.42400002479553
1680291328544560400,4.13056030273437,1.19099998474121,-12.9727993011474,4.01499986648559
1680291328554564900,4.14056494140625,1.57809996604919,-12.49169921875,3.6851999759674
1680291328564560400,4.15056030273437,1.28119993209838,-12.8122997283935,2.45679998397827
1680291328574560300,4.16056030273437,1.04939997196197,-12.8825998306274,0.473999977111816
1680291328584560400,4.17056030273437,1.54719996452331,-12.3252000808715,-0.52590000629425
1680291328594566700,4.18056665039062,1.37639999389648,-12.0090999603271,-0.64489996433258
1680291328604560400,4.19056030273437,0.941699981689453,-11.9429998397827,-1.37619996070861
1680291328614560300,4.20056030273437,0.294099986553192,-11.8830995559692,-2.06539988517761
1680291328624560400,4.21056030273437,-0.210999995470047,-12.3544998168945,-1.83910000324249
1680291328634560300,4.22056030273437,-0.19990000128746,-12.7031993865966,-1.68959999084472
1680291328644560400,4.23056030273437,-0.374799996614456,-13.212399482727,-2.06239986419677
1680291328654560300,4.24056030273437,-0.304499983787536,-13.886300086975,-2.15470004081726
1680291328664560400,4.25056030273437,-0.492799997329711,-14.4320993423461,-3.32239985466003
1680291328674560300,4.26056030273437,-0.945699989795684,-14.4253997802734,-5.13469982147216
1680291328684560400,4.27056030273437,-1.79069995880126,-14.2030992507934,-6.64089965820312
1680291328694566700,4.28056665039062,-3.11879992485046,-15.2386999130249,-6.51919984817504
1680291328704560400,4.29056030273437,-4.79719972610473,-16.4568996429443,-6.12419986724853
1680291328714560300,4.30056030273437,-5.64010000228881,-18.700698852539,-5.8422999382019
1680291328724560400,4.31056030273437,-5.17889976501464,-22.9419994354248,-4.56549978256225
1680291328734568200,4.32056811523437,-5.05149984359741,-26.6539001464843,-4.33640003204345
1680291328744560400,4.33056030273437,-5.59259986877441,-29.6486988067626,-7.39829969406127
1680291328754560300,4.34056030273437,-6.06920003890991,-31.5783996582031,-9.63739967346191
1680291328764560400,4.35056030273437,-8.38019943237304,-32.4610977172851,-9.94019985198974
1680291328774560300,4.36056030273437,-12.482099533081,-32.9766006469726,-7.84519958496093
1680291328784562000,4.37056201171875,-14.4776000976562,-33.4635009765625,-2.34109997749328
1680291328794560300,4.38056030273437,-14.6770992279052,-33.8329010009765,-2.51810002326965
1680291328804560400,4.39056030273437,-13.1528997421264,-34.5969009399414,-3.8801999092102
1680291328814560300,4.40056030273437,-9.33599948883056,-37.9046974182128,-2.14610004425048
1680291328824566500,4.41056640625,-2.63849997520446,-42.1466979980468,-0.80649995803833
1680291328834560300,4.42056030273437,5.57439994812011,-46.9223976135253,1.9993999004364
1680291328844560400,4.43056030273437,12.5966997146606,-52.9443969726562,3.87249994277954
1680291328854560300,4.44056030273437,18.4298992156982,-57.3975982666015,7.33479976654052
1680291328864560400,4.45056030273437,16.6298999786376,-61.893497467041,14.3748998641967
1680291328874560300,4.46056030273437,-2.05509996414184,-63.8833999633789,33.211498260498
1680291328884560400,4.47056030273437,41.0853996276855,-69.3045959472656,12.2097997665405
1680291328894560300,4.48056030273437,15.7638998031616,-68.9858016967773,27.0911998748779
1680291328904562000,4.49056201171875,50.5928993225097,-72.1206970214843,48.9143981933593
1680291328914563300,4.50056323242187,35.1119995117187,-71.0929946899414,32.2877006530761
1680291328924560400,4.51056030273437,45.5742988586425,-66.7265014648437,48.6685981750488
1680291328934560300,4.52056030273437,33.4582977294921,-53.8111000061035,35.9855995178222
1680291328944560400,4.53056030273437,34.918098449707,-41.1089973449707,23.9036998748779
1680291328954560300,4.54056030273437,23.18869972229,-30.0611991882324,9.11439990997314
1680291328964573000,4.55057299804687,19.6842994689941,-22.6502990722656,-3.36759996414184
1680291328974560300,4.56056030273437,13.1358995437622,-18.55659866333,-1.21689999103546
1680291328984560400,4.57056030273437,14.0553998947143,-12.3626995086669,10.6653995513916
1680291328994560300,4.58056030273437,12.7156000137329,-6.96939992904663,15.5072994232177
1680291329004560400,4.59056030273437,13.0622997283935,-5.85010004043579,15.4125995635986
1680291329014568200,4.60056811523437,12.071099281311,-6.13310003280639,12.751799583435
1680291329024562000,4.61056201171875,13.2753000259399,-5.52320003509521,11.6265993118286
1680291329034560300,4.62056030273437,12.8473997116088,-6.0172996520996,9.99949932098388
1680291329044560400,4.63056030273437,13.3217992782592,-4.22499990463256,9.12169933319091
1680291329054560300,4.64056030273437,12.0815000534057,-1.25209999084472,9.1201000213623
1680291329064568000,4.65056811523437,12.355899810791,0.222099989652633,10.5774002075195
1680291329074560300,4.66056030273437,12.0527000427246,0.698799967765808,11.3681001663208
1680291329084562000,4.67056201171875,12.4834995269775,-0.452499985694885,11.3269996643066
1680291329094560300,4.68056030273437,12.0733995437622,-1.71979999542236,7.90949964523315
1680291329104562000,4.69056201171875,11.7943000793457,-1.21490001678466,6.38419961929321
1680291329114560300,4.70056030273437,12.4369993209838,-0.250499993562698,7.20609998703002
1680291329124560400,4.71056030273437,12.843599319458,-0.182199999690055,7.77250003814697
1680291329134560300,4.72056030273437,12.0345993041992,-0.236999988555908,7.04169988632202
1680291329144562000,4.73056201171875,11.4141998291015,-0.543200016021728,6.63749980926513
1680291329154561800,4.74056176757812,10.3531999588012,-0.87909996509552,5.59909963607788
1680291329164560400,4.75056030273437,9.18089962005615,-0.983699977397918,5.18689966201782
1680291329174563300,4.76056323242187,8.55900001525878,-0.683999955654144,4.49779987335205
1680291329184560400,4.77056030273437,8.42640018463134,0.0,4.55789995193481
1680291329194561800,4.78056176757812,8.51599979400634,0.146599993109703,4.42379999160766
1680291329204560400,4.79056030273437,8.30910015106201,-0.153999999165534,4.37729978561401
1680291329214560300,4.80056030273437,8.01389980316162,0.216299995779991,3.83410000801086
1680291329224560400,4.81056030273437,7.69229984283447,1.15199995040893,4.00729990005493
1680291329234560300,4.82056030273437,7.13789987564086,1.93709993362426,3.30839991569519
1680291329244560400,4.83056030273437,6.64569997787475,2.18159985542297,2.71389985084533
1680291329254560300,4.84056030273437,6.00849962234497,2.61249995231628,1.88299989700317
1680291329264560400,4.85056030273437,5.68639993667602,2.92659997940063,1.76769995689392
1680291329274560300,4.86056030273437,5.45239973068237,2.21280002593994,2.07529997825622
1680291329284560400,4.87056030273437,5.05159997940063,1.06910002231597,2.33619999885559
1680291329294560300,4.88056030273437,4.4559998512268,0.259900003671646,2.08889985084533
1680291329304560400,4.89056030273437,3.97069978713989,-0.146599993109703,1.61959993839263
1680291329314560300,4.90056030273437,3.29159998893737,-0.436099976301193,1.23009991645812
1680291329324560400,4.91056030273437,2.41859984397888,-0.82449996471405,0.92029994726181
1680291329334560300,4.92056030273437,2.02359986305236,-1.27939999103546,0.761099994182586
1680291329344560400,4.93056030273437,1.39869999885559,-1.74000000953674,0.465899974107742
1680291329354561800,4.94056176757812,0.967799961566925,-1.55079996585845,0.189699992537498
1680291329364560400,4.95056030273437,0.650499999523162,-1.29129993915557,0.249799996614456
1680291329374561800,4.96056176757812,0.313899993896484,-1.15609991550445,0.316899985074996
1680291329384560400,4.97056030273437,-0.022699998691678,-0.966799974441528,0.164199993014335
1680291329394560300,4.98056030273437,-0.352999985218048,-0.836899995803833,0.114099994301795
1680291329404560400,4.99056030273437,-0.816399991512298,-0.768199980258941,0.0430999994277954
1680291329414560300,5.00056030273437,-0.828799962997436,-0.757200002670288,-0.00230000005103647
1680291329424571100,5.01057104492187,-0.972599983215332,-0.765999972820282,-0.0142000000923872
1680291329434561800,5.02056176757812,-1.03460001945495,-0.900799989700317,0.100999996066093
1680291329444562000,5.03056201171875,-1.07319998741149,-1.63099992275238,0.256599992513656
1680291329454561800,5.04056176757812,-1.25569999217987,-2.48539996147155,0.133000001311302
1680291329464562000,5.05056201171875,-1.61210000514984,-2.21819996833801,-0.279699981212615
1680291329474561800,5.06056176757812,-1.49439990520477,-1.16189992427825,-0.839599967002868
1680291329484560400,5.07056030273437,-1.64769995212554,-0.689300000667572,-0.561599969863891
1680291329494560300,5.08056030273437,-1.67960000038146,-0.91729998588562,-0.13120000064373
1680291329504560400,5.09056030273437,-1.89389991760253,-1.00249993801116,-0.0744999945163726
1680291329514561800,5.10056176757812,-1.91799998283386,-0.797800004482269,-0.204699993133544
1680291329524562000,5.11056201171875,-1.62459993362426,-0.548200011253356,-0.55699998140335
1680291329534560300,5.12056030273437,-1.32770001888275,-0.174799993634223,-0.436299979686737
1680291329544560400,5.13056030273437,-1.29189991950988,0.313600003719329,-0.144599989056587
1680291329554560300,5.14056030273437,-1.36059999465942,0.701399981975555,-0.1317999958992
1680291329564560400,5.15056030273437,-1.25919997692108,0.752900004386901,-0.315200001001358
1680291329574560300,5.16056030273437,-1.11559998989105,0.350099980831146,-0.665300011634826
1680291329584562000,5.17056201171875,-1.04839992523193,-0.00889999978244304,-0.909599959850311
1680291329594560300,5.18056030273437,-1.05559992790222,-0.172600001096725,-0.945599973201751
1680291329604571100,5.19057104492187,-1.02109992504119,-0.195699989795684,-0.86269998550415
1680291329614560300,5.20056030273437,-0.889799952507019,-0.158999994397163,-0.851700007915496
1680291329624560400,5.21056030273437,-0.664799988269805,0.0802999958395958,-0.76419997215271
1680291329634560300,5.22056030273437,-0.436800003051757,0.361999988555908,-0.461999982595443
1680291329644560400,5.23056030273437,-0.205799996852874,0.668799996376037,-0.017799999564886
1680291329654561800,5.24056176757812,-0.20499999821186,0.810099959373474,0.386700004339218
1680291329664560400,5.25056030273437,-0.177499994635581,0.693599998950958,0.589800000190734
1680291329674560300,5.26056030273437,-0.100899994373321,0.33390000462532,0.242899999022483
1680291329684560400,5.27056030273437,-0.0419999994337558,0.0175000000745058,-0.338999986648559
1680291329694572800,5.28057275390625,-0.0697999969124794,-0.061099998652935,-0.865599989891052
1680291329704560400,5.29056030273437,-0.0475999973714351,-0.139499992132186,-1.09850001335144
1680291329714561800,5.30056176757812,0.0373999997973442,-0.0266999993473291,-1.24109995365142
1680291329724560400,5.31056030273437,0.39190000295639,0.320499986410141,-1.27499997615814
1680291329734561800,5.32056176757812,0.637099981307983,0.486699998378753,-0.686899960041046
1680291329744574500,5.33057446289062,0.899999976158142,0.765500009059906,0.5
1680291329754572800,5.34057275390625,0.954999983310699,1.17739999294281,1.58439993858337
1680291329764560400,5.35056030273437,0.849900007247924,1.42979991436004,2.05979990959167
1680291329774561800,5.36056176757812,0.819700002670288,1.36629998683929,1.60769999027252
1680291329784574500,5.37057446289062,0.699699997901916,1.14529991149902,0.407799988985061
1680291329794560300,5.38056030273437,0.794399976730346,0.775599956512451,-0.109200000762939
