time,seconds_elapsed,z,y,x
1680291097195411200,2.2084111328125,0.286059468984603,-0.0534070767462253,-0.41336378455162
1680291097205411300,2.21841137695312,0.292080849409103,-0.146991625428199,-0.432527482509613
1680291097215412700,2.22841284179687,0.31058132648468,-0.243176728487014,-0.430572718381881
1680291097225411300,2.23841137695312,0.329465806484222,-0.349868714809417,-0.421723902225494
1680291097235411200,2.2484111328125,0.355733007192611,-0.40203657746315,-0.402664899826049
1680291097245411300,2.25841137695312,0.388632476329803,-0.43038073182106,-0.370638132095336
1680291097255416000,2.268416015625,0.416976600885391,-0.436559200286865,-0.326289296150207
1680291097265411300,2.27841137695312,0.440329104661941,-0.432946383953094,-0.271398693323135
1680291097275411200,2.2884111328125,0.452179908752441,-0.411147207021713,-0.199648216366767
1680291097285411300,2.29841137695312,0.457206457853317,-0.455653101205825,-0.11086331307888
1680291097295412700,2.30841284179687,0.443680137395858,-0.480558961629867,-0.0175754651427268
1680291097305411300,2.31841137695312,0.417692184448242,-0.529253661632537,0.090792030096054
1680291097315413000,2.3284130859375,0.386555522680282,-0.541191697120666,0.204081341624259
1680291097325478400,2.338478515625,0.338593870401382,-0.526792705059051,0.338105171918869
1680291097335411200,2.3484111328125,0.284593373537063,-0.45519933104515,0.468673259019851
1680291097345411300,2.35841137695312,0.220958679914474,-0.361981272697448,0.610655784606933
1680291097355411200,2.3684111328125,0.16037830710411,-0.263143301010131,0.745150864124298
1680291097365411300,2.37841137695312,0.0936718210577964,-0.150429934263229,0.868824899196624
1680291097375411200,2.3884111328125,0.0341735482215881,-0.000680678407661616,0.986442625522613
1680291097385417500,2.39841748046875,-0.0153763508424162,0.152210161089897,1.08311641216278
1680291097395411200,2.4084111328125,-0.066636674106121,0.296496540307998,1.17218053340911
1680291097405411300,2.41841137695312,-0.116378553211689,0.385333776473999,1.27185630798339
1680291097415411200,2.4284111328125,-0.172176733613014,0.439683347940444,1.36601686477661
1680291097425411300,2.43841137695312,-0.215478345751762,0.464083045721054,1.48052787780761
1680291097435417600,2.44841748046875,-0.251990646123886,0.518572211265564,1.59161806106567
1680291097445411300,2.45841137695312,-0.275587499141693,0.588874101638794,1.71674072742462
1680291097455411200,2.4684111328125,-0.287909507751464,0.626101970672607,1.85661149024963
1680291097465411300,2.47841137695312,-0.298049867153167,0.603325426578521,2.01787996292114
1680291097475411200,2.4884111328125,-0.307265222072601,0.562345087528228,2.18380832672119
1680291097485412900,2.49841284179687,-0.327371418476104,0.434482276439666,2.36540985107421
1680291097495411200,2.5084111328125,-0.350688993930816,0.327964812517166,2.54711604118347
1680291097505411300,2.51841137695312,-0.375420331954956,0.301767438650131,2.71861219406127
1680291097515411200,2.5284111328125,-0.396957695484161,0.282097578048706,2.90154004096984
1680291097525416000,2.538416015625,-0.430171310901641,0.361091166734695,3.08923268318176
1680291097535411200,2.5484111328125,-0.47647488117218,0.388388127088546,3.28481435775756
1680291097545411300,2.55841137695312,-0.559674739837646,0.260141313076019,3.53331422805786
1680291097555411200,2.5684111328125,-0.66832149028778,0.144670337438583,3.78525257110595
1680291097565411300,2.57841137695312,-0.788679361343383,0.0623431615531444,4.05628490447998
1680291097575412700,2.58841284179687,-0.902579545974731,0.0983318462967872,4.31509971618652
1680291097585411300,2.59841137695312,-1.01963877677917,0.238883212208747,4.57606124877929
1680291097595411200,2.6084111328125,-1.1414977312088,0.384216785430908,4.83217096328735
1680291097605411300,2.61841137695312,-1.28950154781341,0.622035324573516,5.07883834838867
1680291097615411200,2.6284111328125,-1.441659450531,0.763633906841278,5.33411026000976
1680291097625411300,2.63841137695312,-1.59624326229095,0.71471232175827,5.62591171264648
1680291097635411200,2.6484111328125,-1.74888968467712,0.53939402103424,5.93336915969848
1680291097645411300,2.65841137695312,-1.87795686721801,0.326638370752334,6.22956895828247
1680291097655411200,2.6684111328125,-2.00409173965454,0.165439754724502,6.50445795059204
1680291097665411300,2.67841137695312,-2.1572093963623,0.101421080529689,6.75135231018066
1680291097675411200,2.6884111328125,-2.3210608959198,0.246841922402381,6.94782400131225
1680291097685411300,2.69841137695312,-2.48102045059204,0.430188745260238,7.13357973098754
1680291097695411200,2.7084111328125,-2.64373755455017,0.51604151725769,7.2967505455017
1680291097705411300,2.71841137695312,-2.79360890388488,0.448619425296783,7.45958948135376
1680291097715411200,2.7284111328125,-2.91614842414855,0.405405074357986,7.6149935722351
1680291097725411300,2.73841137695312,-3.04566931724548,0.265098065137863,7.79465770721435
1680291097735411200,2.7484111328125,-3.19187569618225,0.156556040048599,7.93374300003051
1680291097745411300,2.75841137695312,-3.30582809448242,0.323898196220397,8.06788921356201
1680291097755411200,2.7684111328125,-3.32335114479064,1.05733788013458,8.11698532104492
1680291097765411300,2.77841137695312,-3.23440933227539,1.78892755508422,8.22184467315673
1680291097775411200,2.7884111328125,-3.07556676864624,2.1488492488861,8.39028644561767
1680291097785411300,2.79841137695312,-2.90407085418701,2.06338047981262,8.63684940338134
1680291097795411200,2.8084111328125,-2.73901510238647,1.60959494113922,8.89697265625
1680291097805411300,2.81841137695312,-2.59862065315246,1.07857859134674,9.1252965927124
1680291097815411200,2.8284111328125,-2.48314976692199,0.592731237411499,9.30257034301757
1680291097825412900,2.83841284179687,-2.40888595581054,0.176208436489105,9.40606784820556
1680291097835411200,2.8484111328125,-2.35514736175537,0.00450294930487871,9.40940189361572
1680291097845411300,2.85841137695312,-2.3177797794342,-0.053005650639534,9.31730079650878
1680291097855411200,2.8684111328125,-2.29180932044982,-0.0315904580056667,9.17887878417968
1680291097865411300,2.87841137695312,-2.43033599853515,0.0579623840749263,8.91859722137451
1680291097875411200,2.8884111328125,-2.69407272338867,0.0875980779528617,8.64075851440429
1680291097885411300,2.89841137695312,-2.97639727592468,0.152018174529075,8.26422119140625
1680291097895411200,2.9084111328125,-3.12286520004272,0.162280708551406,7.88267469406127
1680291097905411300,2.91841137695312,-3.15386223793029,-0.0234921313822269,7.500412940979
1680291097915411200,2.9284111328125,-3.13445425033569,-0.0694990083575248,7.08395957946777
1680291097925412900,2.93841284179687,-3.02702927589416,0.0408057980239391,6.61104536056518
1680291097935411200,2.9484111328125,-2.95004272460937,0.134512528777122,6.13596677780151
1680291097945411300,2.95841137695312,-2.93595790863037,0.453192204236984,5.56320190429687
1680291097955411200,2.9684111328125,-2.95311450958251,0.678008079528808,5.00453948974609
1680291097965411300,2.97841137695312,-2.98072552680969,0.845472395420074,4.38149213790893
1680291097975411200,2.9884111328125,-2.9677402973175,0.822783112525939,3.78951120376586
1680291097985411300,2.99841137695312,-2.86942601203918,0.764017879962921,3.1648404598236
1680291097995411200,3.0084111328125,-2.71526098251342,0.757595062255859,2.52814435958862
1680291098005411300,3.01841137695312,-2.62794232368469,1.03161180019378,1.78517508506774
1680291098015411200,3.0284111328125,-2.44506669044494,1.41713750362396,1.05187499523162
1680291098025411300,3.03841137695312,-2.21143698692321,1.97370553016662,0.26033329963684
1680291098035411200,3.0484111328125,-1.95002150535583,2.21066904067993,-0.405073463916778
1680291098045411300,3.05841137695312,-1.64186608791351,2.08664584159851,-1.02180302143096
1680291098055411200,3.0684111328125,-1.34931409358978,1.51962327957153,-1.50562572479248
1680291098065411300,3.07841137695312,-1.02120959758758,0.756687521934509,-2.00632572174072
1680291098075411200,3.0884111328125,-0.640535831451416,0.416697353124618,-2.53126835823059
1680291098085411300,3.09841137695312,-0.113900184631347,0.311506360769271,-3.07429265975952
1680291098095411200,3.1084111328125,0.294349789619445,0.769620358943939,-3.66740798950195
1680291098105411300,3.11841137695312,0.720786094665527,0.89399254322052,-4.21921110153198
1680291098115411200,3.1284111328125,1.31788063049316,0.696752905845642,-4.77623319625854
1680291098125411300,3.13841137695312,2.03873658180236,-0.0179419852793216,-5.4749584197998
1680291098135411200,3.1484111328125,2.72639632225036,-1.005588889122,-6.3804874420166
1680291098145411300,3.15841137695312,3.42088031768798,-1.89848184585571,-7.63728141784668
1680291098155411200,3.1684111328125,4.01684045791626,-2.10936999320983,-9.13498306274414
1680291098165411300,3.17841137695312,4.65812683105468,-1.28524303436279,-10.9926071166992
1680291098175411200,3.1884111328125,5.1951470375061,-0.020542524755001,-12.7947988510131
1680291098185411300,3.19841137695312,5.51901054382324,1.38518059253692,-14.4890079498291
1680291098195411200,3.2084111328125,5.75311136245727,1.92368447780609,-15.6960077285766
1680291098205411300,3.21841137695312,5.91820192337036,0.282394260168075,-15.1087217330932
1680291098215411200,3.2284111328125,5.72839736938476,0.308748751878738,-14.9612064361572
1680291098225412900,3.23841284179687,6.2528862953186,-1.61779808998107,-16.0636615753173
1680291098235411200,3.2484111328125,7.17864370346069,-3.07767868041992,-14.8597335815429
1680291098245411300,3.25841137695312,7.57019090652465,-3.99676895141601,-14.6530685424804
1680291098255411200,3.2684111328125,7.732262134552,-4.46055555343627,-14.3491373062133
1680291098265411300,3.27841137695312,7.47322034835815,-4.80358219146728,-14.0243139266967
1680291098275411200,3.2884111328125,7.34050559997558,-4.39353466033935,-14.1061353683471
1680291098285411300,3.29841137695312,6.75292301177978,-3.70889449119567,-13.8462381362915
1680291098295411200,3.3084111328125,6.03119468688964,-2.85715627670288,-13.5508413314819
1680291098305411300,3.31841137695312,5.14809274673461,-1.49614858627319,-13.0934953689575
1680291098315411200,3.3284111328125,4.28829145431518,-0.106761790812015,-12.5208520889282
1680291098325411300,3.33841137695312,3.55905795097351,1.06646597385406,-11.638536453247
1680291098335411200,3.3484111328125,2.84087252616882,1.31391870975494,-10.5563097000122
1680291098345411300,3.35841137695312,2.22615003585815,0.420030921697616,-9.09604549407959
1680291098355411200,3.3684111328125,1.96890592575073,-0.24020966887474,-7.84158992767334
1680291098365411300,3.37841137695312,1.90153622627258,-0.676803767681121,-6.69133043289184
1680291098375411200,3.3884111328125,1.91722667217254,-0.785258531570434,-5.62912321090698
1680291098385411300,3.39841137695312,1.88097620010375,-0.812346041202545,-4.75357866287231
1680291098395411200,3.4084111328125,1.80296003818511,-0.906314551830291,-3.9872395992279
1680291098405411300,3.41841137695312,1.72075498104095,-1.08332586288452,-3.34513282775878
1680291098415411200,3.4284111328125,1.68363189697265,-1.26922082901,-2.89576292037963
1680291098425411300,3.43841137695312,1.74323487281799,-1.08433818817138,-2.67073774337768
1680291098435411200,3.4484111328125,1.87863755226135,-0.496877789497375,-2.66956830024719
1680291098445411300,3.45841137695312,2.00501680374145,-0.0439648441970348,-2.6858696937561
1680291098455411200,3.4684111328125,2.08933353424072,0.297159761190414,-2.64693140983581
1680291098465411300,3.47841137695312,2.13726043701171,0.550791025161743,-2.58764266967773
1680291098475411200,3.4884111328125,2.14527153968811,0.568750441074371,-2.473149061203
1680291098485411300,3.49841137695312,2.12130808830261,0.291260540485382,-2.28430438041687
1680291098495412700,3.50841284179687,2.07317185401916,-0.199665665626525,-2.06601595878601
1680291098505411300,3.51841137695312,2.03224396705627,-0.721204936504364,-1.83945488929748
1680291098515411200,3.5284111328125,2.00231146812438,-0.925862252712249,-1.67270612716674
1680291098525411300,3.53841137695312,1.9972151517868,-0.940208852291107,-1.53210234642028
1680291098535411200,3.5484111328125,1.97007524967193,-0.756006836891174,-1.40439665317535
1680291098545411300,3.55841137695312,1.93480217456817,-0.490018635988235,-1.25963902473449
1680291098555411200,3.5684111328125,1.87622892856597,-0.0941430628299713,-1.12170565128326
1680291098565411300,3.57841137695312,1.80824840068817,0.171356424689292,-0.966510951519012
1680291098575411200,3.5884111328125,1.72009181976318,0.349554538726806,-0.768608093261718
1680291098585411300,3.59841137695312,1.6108865737915,0.417639821767807,-0.544036567211151
1680291098595411200,3.6084111328125,1.4928673505783,0.381354451179504,-0.30768409371376
1680291098605411300,3.61841137695312,1.36674988269805,0.267995297908782,-0.0482758060097694
1680291098615411200,3.6284111328125,1.24335515499115,0.236596837639808,0.176662221550941
1680291098625411300,3.63841137695312,1.11315357685089,0.335958421230316,0.407080590724945
1680291098635413000,3.6484130859375,0.984575152397155,0.569762706756591,0.582643270492553
1680291098645411300,3.65841137695312,0.847636580467224,0.890222609043121,0.768363773822784
1680291098655411200,3.6684111328125,0.703140795230865,1.18411862850189,0.937363982200622
1680291098665411300,3.67841137695312,0.554072201251983,1.39432609081268,1.13332951068878
1680291098675411200,3.6884111328125,0.407551825046539,1.52374219894409,1.30175375938415
1680291098685414400,3.69841430664062,0.274086505174636,1.66993105411529,1.47005593776702
1680291098695411200,3.7084111328125,0.150080859661102,1.76051366329193,1.61607015132904
1680291098705411300,3.71841137695312,0.0546986199915409,1.85064244270324,1.72599101066589
1680291098715411200,3.7284111328125,-0.0136310216039419,2.04950523376464,1.79351782798767
1680291098725411300,3.73841137695312,-0.0452563874423503,2.22665619850158,1.82313597202301
1680291098735411200,3.7484111328125,-0.057124625891447,2.38979196548461,1.85196888446807
1680291098745411300,3.75841137695312,-0.0653625801205635,2.48684978485107,1.88333237171173
1680291098755411200,3.7684111328125,-0.0797964558005333,2.45981478691101,1.93743765354156
1680291098765411300,3.77841137695312,-0.0940557941794395,2.27976655960083,2.0308825969696
1680291098775416000,3.788416015625,-0.126972705125808,1.94213259220123,2.13930249214172
1680291098785411300,3.79841137695312,-0.176382973790168,1.51154243946075,2.26939916610717
1680291098795411200,3.8084111328125,-0.239441722631454,1.03705716133117,2.39890265464782
1680291098805411300,3.81841137695312,-0.319011270999908,0.456735223531723,2.54304933547973
1680291098815411200,3.8284111328125,-0.391023576259613,0.0271747764199972,2.64583182334899
1680291098825417500,3.83841748046875,-0.440625816583633,-0.177342906594276,2.67298913002014
1680291098835413000,3.8484130859375,-0.486650139093399,-0.513510763645172,2.72037482261657
1680291098845411300,3.85841137695312,-0.505447328090667,-0.737523794174194,2.72458124160766
1680291098855411200,3.8684111328125,-0.471413433551788,-0.747454702854156,2.65375566482543
1680291098865420800,3.8784208984375,-0.39175659418106,-0.606030702590942,2.52625942230224
1680291098875411200,3.8884111328125,-0.326900154352188,-0.502951502799987,2.40427827835083
1680291098885411300,3.89841137695312,-0.319709420204162,-0.392367482185363,2.28430438041687
1680291098895411200,3.9084111328125,-0.36353462934494,-0.233577415347099,2.15459156036376
1680291098905411300,3.91841137695312,-0.444238662719726,-0.092607170343399,2.03803849220275
1680291098915411200,3.9284111328125,-0.53928929567337,0.0730420276522636,1.93384230136871
1680291098925411300,3.93841137695312,-0.635980546474456,0.265272587537765,1.83624339103698
1680291098935411200,3.9484111328125,-0.700121402740478,0.418460130691528,1.76566231250762
1680291098945412900,3.95841284179687,-0.730978786945343,0.5647012591362,1.72024881839752
1680291098955413000,3.9684130859375,-0.744033873081207,0.673156023025512,1.67785477638244
1680291098965411300,3.97841137695312,-0.734801054000854,0.75553560256958,1.65469431877136
1680291098975411200,3.9884111328125,-0.70369929075241,0.856031656265258,1.64040005207061
1680291098985411300,3.99841137695312,-0.689806461334228,0.944833993911743,1.61418521404266
1680291098995411200,4.0084111328125,-0.685704946517944,0.971572458744049,1.60556328296661
1680291099005411300,4.01841137695312,-0.699091613292694,0.887447535991668,1.61160206794738
1680291099015411200,4.0284111328125,-0.727557957172393,0.769236385822296,1.62533783912658
1680291099025411300,4.03841137695312,-0.747419774532318,0.641094326972961,1.62814784049987
1680291099035413000,4.0484130859375,-0.756966769695282,0.472408264875412,1.63635087013244
1680291099045411300,4.05841137695312,-0.758677184581756,0.323793470859527,1.63861978054046
1680291099055412700,4.06841284179687,-0.759008765220642,0.264207929372787,1.60081601142883
1680291099065411300,4.07841137695312,-0.735551536083221,0.255394041538238,1.55573415756225
1680291099075411200,4.0884111328125,-0.703053534030914,0.375001430511474,1.47925376892089
1680291099085411300,4.09841137695312,-0.670520603656768,0.543792247772216,1.38486635684967
1680291099095419100,4.10841918945312,-0.65313708782196,0.68170815706253,1.29960703849792
1680291099105411300,4.11841137695312,-0.677257537841796,0.77469927072525,1.21131086349487
1680291099115411200,4.1284111328125,-0.69476318359375,0.740106880664825,1.14767611026763
1680291099125411300,4.13841137695312,-0.702093601226806,0.604285359382629,1.10018575191497
1680291099135411200,4.1484111328125,-0.678863286972045,0.503649652004241,1.04105401039123
1680291099145411300,4.15841137695312,-0.632664382457733,0.413311421871185,0.994244277477264
1680291099155411200,4.1684111328125,-0.567162215709686,0.342189252376556,0.951326608657836
1680291099165411300,4.17841137695312,-0.514610350131988,0.284750461578369,0.914203464984893
1680291099175411200,4.1884111328125,-0.500769853591919,0.246737197041511,0.883415877819061
