time,seconds_elapsed,z,y,x
1680291109194560300,2.40456030273437,1.81659996509552,-0.422799974679946,-1.14419996738433
1680291109204560400,2.41456030273437,2.06219983100891,-0.391999989748001,-0.987099945545196
1680291109214560300,2.42456030273437,2.18029999732971,-0.299299985170364,-0.836099982261657
1680291109224560400,2.43456030273437,2.31719994544982,-0.125799998641014,-0.685199975967407
1680291109234560300,2.44456030273437,2.48189997673034,0.11829999834299,-0.560699999332428
1680291109244566500,2.45456640625,2.35929989814758,0.20610000193119,-0.421099990606308
1680291109254560300,2.46456030273437,2.50689983367919,0.0678000003099441,-0.464299976825714
1680291109264562000,2.47456201171875,2.60969996452331,-0.0618999972939491,-0.505199968814849
1680291109274560300,2.48456030273437,2.89259982109069,-0.0756999999284744,-0.581399977207183
1680291109284566500,2.49456640625,3.10999989509582,-0.0223999992012977,-0.688399970531463
1680291109294560300,2.50456030273437,3.35060000419616,0.1875,-0.762099981307983
1680291109304560400,2.51456030273437,3.51699995994567,0.365399986505508,-0.858299970626831
1680291109314560300,2.52456030273437,3.6194999217987,0.258899986743927,-0.773099958896637
1680291109324560400,2.53456030273437,3.85139989852905,0.137500002980232,-0.805899977684021
1680291109334564900,2.54456494140625,4.17409992218017,0.280999988317489,-0.853999972343444
1680291109344562000,2.55456201171875,4.43979978561401,0.629700005054473,-0.878899991512298
1680291109354560300,2.56456030273437,4.63809967041015,0.722199976444244,-0.762099981307983
1680291109364560400,2.57456030273437,4.76859998703002,0.450099974870681,-0.530999958515167
1680291109374566700,2.58456665039062,5.14559984207153,0.196299999952316,-0.242599993944168
1680291109384562000,2.59456201171875,5.38569974899292,0.557999968528747,-0.060199998319149
1680291109394560300,2.60456030273437,5.36999988555908,0.97489994764328,0.0974999964237213
1680291109404560400,2.61456030273437,5.49169969558715,1.25160002708435,0.200899988412857
1680291109414560300,2.62456030273437,5.35809993743896,1.48529994487762,0.288599997758865
1680291109424560400,2.63456030273437,5.50880002975463,1.36210000514984,0.380499988794326
1680291109434560300,2.64456030273437,5.60109996795654,1.1172000169754,0.350199997425079
1680291109444560400,2.65456030273437,5.82169961929321,1.11299991607666,0.284799993038177
1680291109454560300,2.66456030273437,6.08299970626831,1.12379992008209,0.255199998617172
1680291109464562000,2.67456201171875,6.43540000915527,1.1009999513626,0.401399999856948
1680291109474560300,2.68456030273437,6.69389963150024,0.897899985313415,0.449799984693527
1680291109484560400,2.69456030273437,6.81929969787597,0.523599982261657,0.474699974060058
1680291109494560300,2.70456030273437,7.13639974594116,0.389999985694885,0.457199990749359
1680291109504560400,2.71456030273437,7.19449996948242,0.358699977397918,0.291999995708465
1680291109514560300,2.72456030273437,7.50499963760376,0.380299985408782,0.209099993109703
1680291109524560400,2.73456030273437,7.77469968795776,0.1891999989748,0.361799985170364
1680291109534560300,2.74456030273437,8.33850002288818,-0.0287999995052814,0.451599985361099
1680291109544560400,2.75456030273437,9.00139999389648,0.00969999935477972,0.791000008583068
1680291109554560300,2.76456030273437,9.12609958648681,0.0276999995112419,1.15939998626708
1680291109564566500,2.77456640625,9.51879978179931,0.3783999979496,1.65119993686676
1680291109574560300,2.78456030273437,9.85639953613281,0.755099952220916,1.7723000049591
1680291109584560400,2.79456030273437,10.1093997955322,0.585399985313415,2.01670002937316
1680291109594560300,2.80456030273437,10.3376998901367,0.112499997019767,2.07049989700317
1680291109604560400,2.81456030273437,11.1338996887207,-0.0635000020265579,2.13610005378723
1680291109614560300,2.82456030273437,11.1780996322631,-0.344999998807907,1.87389993667602
1680291109624560400,2.83456030273437,11.9567995071411,-0.354999989271163,1.93180000782012
1680291109634560300,2.84456030273437,12.3753995895385,-0.661099970340728,2.39590001106262
1680291109644560400,2.85456030273437,12.2701997756958,-1.26279997825622,3.02009987831115
1680291109654560300,2.86456030273437,12.4182996749877,-1.74650001525878,3.46019983291625
1680291109664560400,2.87456030273437,12.1243000030517,-2.90100002288818,3.58319997787475
1680291109674560300,2.88456030273437,12.0391998291015,-3.67610001564025,3.54279994964599
1680291109684560400,2.89456030273437,12.1482992172241,-4.36469984054565,3.19679999351501
1680291109694563300,2.90456323242187,12.0543994903564,-5.44569969177246,2.7525999546051
1680291109704560400,2.91456030273437,11.9003000259399,-6.09819984436035,2.16490006446838
1680291109714560300,2.92456030273437,11.8168992996215,-6.82719993591308,1.73399996757507
1680291109724560400,2.93456030273437,11.1238994598388,-8.19519996643066,1.6255999803543
1680291109734560300,2.94456030273437,10.5700998306274,-8.90749931335449,1.71089994907379
1680291109744565000,2.95456494140625,10.5949993133544,-9.28499984741211,1.84920001029968
1680291109754560300,2.96456030273437,10.1069002151489,-10.0692996978759,1.89289999008178
1680291109764560400,2.97456030273437,10.0404996871948,-10.7822999954223,1.87919998168945
1680291109774561800,2.98456176757812,9.7386999130249,-11.62739944458,2.18249988555908
1680291109784560400,2.99456030273437,9.5487995147705,-13.0637998580932,2.30209994316101
1680291109794560300,3.00456030273437,9.77029991149902,-13.5611991882324,2.48409986495971
1680291109804560400,3.01456030273437,9.19309997558593,-14.4389991760253,2.4054000377655
1680291109814560300,3.02456030273437,10.0444993972778,-14.9777994155883,2.14619994163513
1680291109824560400,3.03456030273437,9.40439987182617,-15.0503997802734,1.97299993038177
1680291109834561800,3.04456176757812,10.0476999282836,-15.111099243164,1.8636999130249
1680291109844560400,3.05456030273437,9.14729976654052,-14.982699394226,2.36409997940063
1680291109854560300,3.06456030273437,8.90289974212646,-14.9310998916625,2.94339990615844
1680291109864560400,3.07456030273437,8.14139938354492,-14.6547994613647,3.42239999771118
1680291109874560300,3.08456030273437,7.18219995498657,-14.5394992828369,3.70959997177124
1680291109884563500,3.0945634765625,6.71560001373291,-14.4235000610351,3.99539995193481
1680291109894560300,3.10456030273437,5.69969987869262,-13.7231998443603,4.01130008697509
1680291109904560400,3.11456030273437,5.16459989547729,-13.5046997070312,4.08759975433349
1680291109914560300,3.12456030273437,4.89529991149902,-13.0577993392944,3.27469992637634
1680291109924563500,3.1345634765625,3.92219996452331,-13.1866998672485,2.96479988098144
1680291109934560300,3.14456030273437,3.3170998096466,-13.3833999633789,3.09869980812072
1680291109944560400,3.15456030273437,2.52049994468688,-13.3893995285034,3.48689985275268
1680291109954560300,3.16456030273437,1.65609991550445,-13.0518999099731,3.34340000152587
1680291109964560400,3.17456030273437,1.15079998970031,-12.7381992340087,2.47959995269775
1680291109974560300,3.18456030273437,0.629299998283386,-12.0812997817993,2.17439985275268
1680291109984560400,3.19456030273437,0.715799987316131,-12.0289001464843,1.96129989624023
1680291109994560300,3.20456030273437,0.355699986219406,-12.3280992507934,1.24239993095397
1680291110004560400,3.21456030273437,0.15150000154972,-12.6826000213623,0.809799969196319
1680291110014560300,3.22456030273437,-0.206499993801116,-12.9516992568969,0.252000004053115
1680291110024560400,3.23456030273437,-0.910099983215332,-13.3631992340087,-0.674299955368042
1680291110034560300,3.24456030273437,-0.9753999710083,-13.1623001098632,-1.70699989795684
1680291110044560400,3.25456030273437,-1.90939998626708,-12.8030996322631,-2.27600002288818
1680291110054560300,3.26456030273437,-2.84640002250671,-12.8081998825073,-3.13439989089965
1680291110064560400,3.27456030273437,-3.69019985198974,-13.0,-3.04620003700256
1680291110074561800,3.28456176757812,-4.12599992752075,-13.3232994079589,-2.3743999004364
1680291110084560400,3.29456030273437,-4.09060001373291,-13.8552999496459,-1.8885999917984
1680291110094560300,3.30456030273437,-3.26339983940124,-14.8794994354248,-1.9565999507904
1680291110104560400,3.31456030273437,-3.49609994888305,-16.5534000396728,-2.18560004234313
1680291110114560300,3.32456030273437,-3.8555998802185,-18.6784000396728,-3.03049993515014
1680291110124560400,3.33456030273437,-4.15269994735717,-21.1789989471435,-3.575199842453
1680291110134560300,3.34456030273437,-5.08640003204345,-24.9405994415283,-3.17319989204406
1680291110144560400,3.35456030273437,-5.9375,-28.5898990631103,-2.5271999835968
1680291110154560300,3.36456030273437,-8.18959999084472,-32.9360008239746,-0.678900003433227
1680291110164560400,3.37456030273437,-9.45619964599609,-34.8003005981445,1.3367999792099
1680291110174560300,3.38456030273437,-12.6450996398925,-34.7774009704589,4.44490003585815
1680291110184560400,3.39456030273437,-13.5460996627807,-32.9710006713867,7.86629962921142
1680291110194560300,3.40456030273437,-14.1927995681762,-30.8039989471435,11.8573999404907
1680291110204560400,3.41456030273437,-12.7076997756958,-30.0723991394042,11.6124992370605
1680291110214561800,3.42456176757812,-10.2425994873046,-30.6164989471435,9.50930023193359
1680291110224560400,3.43456030273437,-6.73159980773925,-32.5411987304687,7.43089962005615
1680291110234560300,3.44456030273437,0.73989999294281,-34.801700592041,3.84719991683959
1680291110244560400,3.45456030273437,6.52439975738525,-38.1307983398437,-1.16449999809265
1680291110254560300,3.46456030273437,11.3815994262695,-43.7332000732421,1.90999996662139
1680291110264560400,3.47456030273437,20.4237995147705,-48.2845993041992,6.02740001678466
1680291110274560300,3.48456030273437,29.7673988342285,-46.5329971313476,15.692699432373
1680291110284560400,3.49456030273437,-10.897099494934,-48.2523002624511,27.135398864746
1680291110294560300,3.50456030273437,11.684700012207,-52.4277000427246,19.3794994354248
1680291110304560400,3.51456030273437,32.3357009887695,-48.1473999023437,20.4993000030517
1680291110314561800,3.52456176757812,34.3943977355957,-50.4349975585937,20.3374996185302
1680291110324560400,3.53456030273437,38.8593978881835,-48.4529991149902,14.7739992141723
1680291110334560300,3.54456030273437,20.2806987762451,-45.0032997131347,12.2107992172241
1680291110344560400,3.55456030273437,22.5690002441406,-40.0713996887207,9.27509975433349
1680291110354560300,3.56456030273437,14.9945993423461,-33.9867973327636,5.66619968414306
1680291110364560400,3.57456030273437,19.347599029541,-28.3268985748291,5.11529970169067
1680291110374561800,3.58456176757812,15.3173999786376,-26.5690002441406,5.29259967803955
1680291110384560400,3.59456030273437,15.91339969635,-25.4640998840332,7.63539981842041
1680291110394560300,3.60456030273437,12.5054998397827,-20.605899810791,8.17239952087402
1680291110404560400,3.61456030273437,12.8414993286132,-17.3050003051757,7.56789970397949
1680291110414560300,3.62456030273437,10.6057996749877,-15.0502996444702,6.13969993591308
1680291110424560400,3.63456030273437,13.1347999572753,-12.0223999023437,5.17779970169067
1680291110434560300,3.64456030273437,11.6904001235961,-10.9514999389648,4.71140003204345
1680291110444566500,3.65456640625,13.3706998825073,-10.919599533081,4.50290012359619
1680291110454560300,3.66456030273437,12.3682994842529,-11.2732000350952,5.12050008773803
1680291110464560400,3.67456030273437,11.7995996475219,-11.8763999938964,5.17579984664917
1680291110474561800,3.68456176757812,11.686499595642,-10.4173994064331,4.54269981384277
1680291110484560400,3.69456030273437,11.6623992919921,-10.4215002059936,4.41779994964599
1680291110494560300,3.70456030273437,11.2950992584228,-11.4818000793457,4.48099994659423
1680291110504560400,3.71456030273437,11.8269996643066,-10.3954000473022,3.97359991073608
1680291110514560300,3.72456030273437,11.6244001388549,-8.31069946289062,3.99849987030029
1680291110524562000,3.73456201171875,11.7051992416381,-7.83990001678466,4.79539966583251
1680291110534563300,3.74456323242187,11.377999305725,-7.70409965515136,4.76659965515136
1680291110544560400,3.75456030273437,11.1680994033813,-6.58179998397827,5.12999963760376
1680291110554560300,3.76456030273437,10.5350999832153,-6.5346999168396,4.70149993896484
1680291110564560400,3.77456030273437,10.9200000762939,-6.98859977722168,4.16759967803955
1680291110574560300,3.78456030273437,10.9545993804931,-6.85269975662231,3.66339993476867
1680291110584560400,3.79456030273437,11.1925992965698,-5.71379995346069,3.91709995269775
1680291110594560300,3.80456030273437,11.4233999252319,-4.25539970397949,4.03929996490478
1680291110604560400,3.81456030273437,11.5088996887207,-2.93649983406066,4.56229972839355
1680291110614560300,3.82456030273437,10.7125997543334,-2.06979990005493,4.13109970092773
1680291110624560400,3.83456030273437,9.83360004425048,-1.66609990596771,3.95249986648559
1680291110634564900,3.84456494140625,9.27799987792968,-1.32480001449584,3.83209991455078
1680291110644560400,3.85456030273437,9.61859989166259,-0.0273000001907348,3.44089984893798
1680291110654560300,3.86456030273437,10.1244001388549,0.793699979782104,3.94599986076355
1680291110664560400,3.87456030273437,9.35830020904541,0.492399990558624,3.85369992256164
1680291110674560300,3.88456030273437,8.41819953918457,-0.151099994778633,3.78829979896545
1680291110684560400,3.89456030273437,7.27670001983642,-0.18809999525547,3.36730003356933
1680291110694560300,3.90456030273437,6.51230001449585,-0.0071000000461936,3.00429987907409
1680291110704560400,3.91456030273437,6.11559963226318,-0.254099994897842,2.7791998386383
1680291110714561800,3.92456176757812,5.94689989089965,-0.841899991035461,2.31629991531372
1680291110724560400,3.93456030273437,6.707200050354,-0.110599994659423,1.95509994029998
1680291110734560300,3.94456030273437,6.05949974060058,0.962199985980987,1.7369999885559
1680291110744560400,3.95456030273437,4.98420000076293,1.15629994869232,1.3755999803543
1680291110754560300,3.96456030273437,3.80949997901916,0.758899986743927,0.947200000286102
1680291110764563500,3.9745634765625,2.88969993591308,0.438199996948242,0.594199955463409
1680291110774560300,3.98456030273437,2.75440001487731,0.174699991941452,0.48989999294281
1680291110784560400,3.99456030273437,2.70560002326965,-0.130799993872642,0.528699994087219
1680291110794560300,4.00456030273437,2.76339983940124,-0.20329999923706,0.49109998345375
1680291110804560400,4.01456030273437,2.78250002861022,0.0876000002026557,0.54280000925064
1680291110814568200,4.02456811523437,2.64259982109069,0.675700008869171,0.553499996662139
1680291110824560400,4.03456030273437,2.10710000991821,1.12230002880096,0.477899998426437
1680291110834560300,4.04456030273437,1.62839996814727,1.10339999198913,0.269800007343292
1680291110844560400,4.05456030273437,1.29549992084503,1.06149995326995,0.152099996805191
1680291110854568200,4.06456811523437,1.11899995803833,1.06679999828338,0.0403999984264373
1680291110864560400,4.07456030273437,1.09379994869232,0.928399980068206,0.00260000000707805
1680291110874560300,4.08456030273437,0.895599961280822,0.615799963474273,0.119799993932247
1680291110884560400,4.09456030273437,0.697899997234344,0.293500006198883,0.13239999115467
1680291110894560300,4.10456030273437,0.502499997615814,0.42409998178482,-0.0056999996304512
1680291110904560400,4.11456030273437,0.209299996495246,0.525099992752075,-0.0249999985098838
1680291110914560300,4.12456030273437,0.259599983692169,0.174999997019767,0.145999997854232
1680291110924560400,4.13456030273437,0.287900000810623,0.00859999936074018,0.120600000023841
1680291110934561800,4.14456176757812,0.361399978399276,0.191100001335144,-0.0606999993324279
1680291110944563500,4.1545634765625,0.186299994587898,0.193499997258186,-0.172199994325637
1680291110954560300,4.16456030273437,0.0498999990522861,-0.18699999153614,-0.112499997019767
1680291110964560400,4.17456030273437,-0.302599996328353,-0.460299998521804,-0.173799991607666
1680291110974560300,4.18456030273437,-0.391499996185302,-0.47979998588562,-0.161599993705749
1680291110984560400,4.19456030273437,-0.397499978542327,-0.46570000052452,-0.148999989032745
1680291110994571300,4.2045712890625,-0.262600004673004,-0.526899993419647,-0.153499990701675
1680291111004560400,4.21456030273437,-0.065200001001358,-0.604699969291687,-0.216299995779991
1680291111014560300,4.22456030273437,-0.0271999984979629,-0.616999983787536,-0.306299984455108
1680291111024560400,4.23456030273437,-0.141599997878074,-0.576600015163421,-0.441499978303909
1680291111034560300,4.24456030273437,-0.277799993753433,-0.430699974298477,-0.57229995727539
1680291111044560400,4.25456030273437,-0.593699991703033,-0.425899982452392,-0.6003999710083
1680291111054561800,4.26456176757812,-0.721399962902069,-0.428999990224838,-0.665600001811981
1680291111064560400,4.27456030273437,-0.703599989414215,-0.237999990582466,-0.689199984073638
1680291111074560300,4.28456030273437,-0.624099969863891,-0.167799994349479,-0.620899975299835
1680291111084560400,4.29456030273437,-0.486499994993209,-0.36379998922348,-0.446199983358383
1680291111094560300,4.30456030273437,-0.387799978256225,-0.383399993181228,-0.310000002384185
1680291111104560400,4.31456030273437,-0.485100001096725,-0.354200005531311,-0.273000001907348
1680291111114560300,4.32456030273437,-0.650599956512451,-0.36389997601509,-0.323699980974197
1680291111124560400,4.33456030273437,-0.769299983978271,-0.405599981546402,-0.411599993705749
1680291111134566700,4.34456665039062,-0.762799978256225,-0.281899988651275,-0.549799978733062
1680291111144560400,4.35456030273437,-0.583000004291534,-0.12280000001192,-0.716499984264373
1680291111154561800,4.36456176757812,-0.441199988126754,-0.0409999974071979,-0.749700009822845
1680291111164560400,4.37456030273437,-0.356499999761581,-0.0163000002503395,-0.76469999551773
1680291111174563300,4.38456323242187,-0.425899982452392,0.0502000004053115,-0.741299986839294
