time,seconds_elapsed,z,y,x
1680290586497588000,0.023587890625,-0.07031520456075668,0.017172086983919144,-0.29229438304901123
1680290586507646700,0.033646728515625,-0.07413311302661896,0.053411852568387985,-0.30616170167922974
1680290586517706000,0.0437060546875,-0.07403706014156342,0.08140317350625992,-0.31911057233810425
1680290586527764700,0.0537646484375,-0.07246686518192291,0.0964987650513649,-0.32768356800079346
1680290586537824000,0.063823974609375,-0.06495018303394318,0.07840381562709808,-0.33347171545028687
1680290586547882800,0.0738828125,-0.05999750643968582,0.08378180861473083,-0.3333638608455658
1680290586557942000,0.08394189453125,-0.03963211178779602,0.10847834497690201,-0.33545246720314026
1680290586568000800,0.094000732421875,-0.021018747240304947,0.13894464075565338,-0.33469852805137634
1680290586578060000,0.10406005859375,0.0007534129545092583,0.17983797192573547,-0.3368436396121979
1680290586588118800,0.114118896484375,0.020386770367622375,0.23064203560352325,-0.34819456934928894
1680290586598177800,0.124177734375,0.04584473371505737,0.26562240719795227,-0.36220666766166687
1680290586608236800,0.13423681640625,0.07994943857192993,0.17346639931201935,-0.38297322392463684
1680290586618295800,0.1442958984375,0.11049859970808029,0.1407441645860672,-0.4131409823894501
1680290586628355000,0.15435498046875,0.13418103754520416,0.08426463603973389,-0.4453026354312897
1680290586638413800,0.164413818359375,0.15454226732254028,-0.00415200088173151,-0.491065114736557
1680290586648473000,0.17447314453125,0.17492663860321045,-0.10363677889108658,-0.5460551381111145
1680290586658531800,0.18453173828125,0.1924857795238495,-0.15703091025352478,-0.6044456958770752
1680290586668591000,0.194591064453125,0.20721599459648132,-0.12435870617628098,-0.669826865196228
1680290586678649900,0.20464990234375,0.2190432846546173,-0.07125348597764969,-0.733733594417572
1680290586688709000,0.214709228515625,0.23811949789524078,-0.06922042369842529,-0.8074421882629395
1680290586698768000,0.224767822265625,0.26697948575019836,-0.13453304767608643,-0.8839386105537415
1680290586708826600,0.23482666015625,0.30004820227622986,-0.2432613968849182,-0.967067301273346
1680290586718885600,0.2448857421875,0.3291049599647522,-0.37054070830345154,-1.0599842071533203
1680290586728944600,0.254944580078125,0.34891167283058167,-0.5136062502861023,-1.1563324928283691
1680290586739003600,0.265003662109375,0.36117610335350037,-0.7360725998878479,-1.2715448141098022
1680290586749062700,0.275062744140625,0.3853062093257904,-1.0393394231796265,-1.3994311094284058
1680290586759121700,0.28512158203125,0.4447901248931885,-1.2328628301620483,-1.5406731367111206
1680290586769180400,0.295180419921875,0.5203823447227478,-1.2641350030899048,-1.687247633934021
1680290586779239700,0.30523974609375,0.5917558670043945,-1.2096548080444336,-1.8290767669677734
1680290586789298400,0.31529833984375,0.6586933135986328,-1.1396740674972534,-1.972191333770752
1680290586799357700,0.325357666015625,0.7264077067375183,-1.127875804901123,-2.1120564937591553
1680290586809416400,0.33541650390625,0.7846528887748718,-1.1371955871582031,-2.24446177482605
1680290586819475700,0.345475830078125,0.8266353011131287,-1.1586909294128418,-2.379826068878174
1680290586829534500,0.355534423828125,0.8516040444374084,-1.276731014251709,-2.5132737159729004
1680290586839593700,0.36559375,0.8580174446105957,-1.4270474910736084,-2.647010564804077
1680290586849652500,0.375652587890625,0.8374173641204834,-1.439280390739441,-2.778771162033081
1680290586859711700,0.385711669921875,0.8055375218391418,-1.3784888982772827,-2.9091074466705322
1680290586869770500,0.3957705078125,0.8356162905693054,-1.4909241199493408,-3.0251121520996094
1680290586879829800,0.405829833984375,0.9315937757492065,-1.622078776359558,-3.141305446624756
1680290586889888500,0.415888427734375,1.028304100036621,-1.7104099988937378,-3.251161575317383
1680290586899947500,0.425947509765625,1.0985785722732544,-1.8103477954864502,-3.3625519275665283
1680290586910006500,0.436006591796875,1.1513924598693848,-1.9293711185455322,-3.4712696075439453
1680290586920065500,0.4460654296875,1.1949998140335083,-1.9668071269989014,-3.55419921875
1680290586930124500,0.45612451171875,1.2292457818984985,-1.792226791381836,-3.62988543510437
1680290586940183600,0.46618359375,1.2375175952911377,-1.4819953441619873,-3.660335063934326
1680290586950242600,0.47624267578125,1.2028834819793701,-1.3535332679748535,-3.6465156078338623
1680290586960301600,0.486301513671875,1.0957865715026855,-1.2003111839294434,-3.600517749786377
1680290586970360600,0.496360595703125,0.947290301322937,-1.0199153423309326,-3.518120527267456
1680290586980419600,0.506419677734375,0.8766409158706665,-1.0589916706085205,-3.403508424758911
1680290586990478600,0.516478515625,0.8710847496986389,-1.1171354055404663,-3.282554864883423
1680290587000537600,0.52653759765625,0.9016424417495728,-1.1475337743759155,-3.1423189640045166
1680290587010596600,0.5365966796875,0.920907199382782,-1.1004821062088013,-2.9982805252075195
1680290587020655600,0.546655517578125,0.9040703773498535,-0.9816641211509705,-2.8480381965637207
1680290587030714600,0.556714599609375,0.8771945238113403,-0.8340842723846436,-2.692816734313965
1680290587040773600,0.566773681640625,0.8524297475814819,-0.6775846481323242,-2.534682512283325
1680290587050832400,0.576832275390625,0.830451488494873,-0.5756244659423828,-2.3860511779785156
1680290587060891600,0.5868916015625,0.7928023338317871,-0.48819831013679504,-2.2474234104156494
1680290587070950400,0.596950439453125,0.7256502509117126,-0.41136717796325684,-2.1166677474975586
1680290587081009700,0.607009765625,0.5987334847450256,-0.26782259345054626,-1.9951356649398804
1680290587091068400,0.617068359375,0.48190996050834656,-0.15581348538398743,-1.8799338340759277
1680290587101127700,0.627127685546875,0.4706750214099884,-0.21261543035507202,-1.7529852390289307
1680290587111186400,0.6371865234375,0.4776751399040222,-0.21774627268314362,-1.6393907070159912
1680290587121245700,0.64724560546875,0.45038044452667236,-0.11718470603227615,-1.5318890810012817
1680290587131304400,0.657304443359375,0.3955116271972656,-0.10169735550880432,-1.4064342975616455
1680290587141363700,0.66736376953125,0.3285979926586151,-0.10520371049642563,-1.2859950065612793
1680290587151422500,0.67742236328125,0.2750471532344818,-0.14367733895778656,-1.152369499206543
1680290587161481700,0.687481689453125,0.22571955621242523,-0.1748690903186798,-1.0265049934387207
1680290587171540500,0.69754052734375,0.16811645030975342,-0.08718797564506531,-0.9079184532165527
1680290587181599700,0.707599853515625,0.12070143967866898,0.05555526167154312,-0.7976848483085632
1680290587191658800,0.71765869140625,0.07659177482128143,0.1653054654598236,-0.6870299577713013
1680290587201717500,0.727717529296875,0.03135199472308159,0.2000739723443985,-0.5743545889854431
1680290587211776800,0.73777685546875,-0.010315556079149246,0.24257507920265198,-0.4723712205886841
1680290587221835500,0.74783544921875,-0.05152195319533348,0.3397555649280548,-0.3795143663883209
1680290587231894800,0.757894775390625,-0.09018731862306595,0.412893146276474,-0.2852618992328644
1680290587241953500,0.76795361328125,-0.12240693718194962,0.4576570391654968,-0.20122359693050385
1680290587252012800,0.7780126953125,-0.1489402800798416,0.46196603775024414,-0.12842315435409546
1680290587262071600,0.788071533203125,-0.17463193833827972,0.41995128989219666,-0.06259865313768387
1680290587272130800,0.798130859375,-0.19178242981433868,0.36549311876296997,-0.001251674722880125
1680290587282189600,0.808189453125,-0.20282761752605438,0.320252388715744,0.051754020154476166
1680290587292248800,0.818248779296875,-0.20898911356925964,0.2905062139034271,0.0961286723613739
1680290587302307600,0.8283076171875,-0.20529304444789886,0.2644774317741394,0.13939878344535828
1680290587312366800,0.838366943359375,-0.19512349367141724,0.24257133901119232,0.17574773728847504
1680290587322425600,0.848425537109375,-0.18074695765972137,0.24765746295452118,0.20835308730602264
1680290587332484600,0.858484619140625,-0.16712035238742828,0.24832908809185028,0.23458708822727203
1680290587342543600,0.868543701171875,-0.1521044373512268,0.2367301732301712,0.26183509826660156
1680290587352602600,0.8786025390625,-0.14150744676589966,0.254888117313385,0.27770566940307617
1680290587362661600,0.88866162109375,-0.12609592080116272,0.26360151171684265,0.2983126938343048
1680290587372720600,0.898720703125,-0.11151405423879623,0.2455436885356903,0.31366637349128723
1680290587382779600,0.908779541015625,-0.09775561839342117,0.19574184715747833,0.3244001865386963
1680290587392838700,0.918838623046875,-0.085786834359169,0.1063547134399414,0.3321225643157959
1680290587402897700,0.928897705078125,-0.07477696239948273,0.03703460842370987,0.33146044611930847
1680290587412956700,0.938956787109375,-0.06567773967981339,0.04060377553105354,0.3236379325389862
1680290587423015700,0.949015625,-0.05383032560348511,0.039423249661922455,0.3166447579860687
1680290587433075700,0.95907568359375,-0.04325651377439499,0.030823104083538055,0.3060815930366516
1680290587443133700,0.9691337890625,-0.03439014405012131,0.042317457497119904,0.293383926153183
1680290587453192700,0.979192626953125,-0.03217599540948868,0.0590149387717247,0.28263434767723083
1680290587463252500,0.98925244140625,-0.023124834522604942,0.14118799567222595,0.26833227276802063
1680290587473311700,0.999311767578125,-0.01914287731051445,0.24805773794651031,0.2519306540489197
1680290587483370500,1.00937060546875,-0.021552324295043945,0.2822483777999878,0.2386501580476761
1680290587493428700,1.0194287109375,-0.02411029115319252,0.274682879447937,0.22115612030029297
1680290587503488500,1.029488525390625,-0.030922915786504745,0.3026692271232605,0.2075512707233429
1680290587513547800,1.0395478515625,-0.038683101534843445,0.3552416265010834,0.2050657421350479
1680290587523606500,1.0496064453125,-0.053982265293598175,0.4068607687950134,0.21433334052562714
1680290587533665500,1.05966552734375,-0.07204994559288025,0.48091793060302734,0.23675422370433807
1680290587543724500,1.069724609375,-0.08548793941736221,0.5431952476501465,0.27543905377388
1680290587553783600,1.079783447265625,-0.10466749221086502,0.48743799328804016,0.32047179341316223
1680290587563842600,1.089842529296875,-0.12971772253513336,0.3665328323841095,0.3804852068424225
1680290587573901600,1.099901611328125,-0.16647174954414368,0.2820717394351959,0.4486357569694519
1680290587583960600,1.109960693359375,-0.20508776605129242,0.3094802796840668,0.5188202261924744
1680290587594019600,1.12001953125,-0.2567666471004486,0.31965863704681396,0.6170152425765991
1680290587604078600,1.13007861328125,-0.3051327168941498,0.3384271264076233,0.7321158647537231
1680290587614137600,1.1401376953125,-0.34683117270469666,0.45254814624786377,0.8499183654785156
1680290587624196600,1.150196533203125,-0.38742950558662415,0.6043221354484558,0.9961108565330505
1680290587634255600,1.160255615234375,-0.41495782136917114,0.8192125558853149,1.1438435316085815
1680290587644314600,1.170314697265625,-0.42522132396698,1.0357025861740112,1.3105870485305786
1680290587654373600,1.18037353515625,-0.42799872159957886,1.085111141204834,1.4961304664611816
1680290587664432600,1.1904326171875,-0.4290606677532196,0.9279009699821472,1.707671880722046
1680290587674491600,1.20049169921875,-0.4495648741722107,0.5843656659126282,1.9297906160354614
1680290587684550400,1.21055029296875,-0.49671098589897156,0.12145986407995224,2.1628127098083496
1680290587694609700,1.220609619140625,-0.5709179043769836,-0.04984957352280617,2.3946726322174072
1680290587704668400,1.23066845703125,-0.6510804295539856,0.10927069932222366,2.6337664127349854
1680290587714728400,1.240728515625,-0.7290292978286743,0.26631754636764526,2.8940773010253906
1680290587724787200,1.250787109375,-0.787355899810791,0.43689924478530884,3.1743125915527344
1680290587734846500,1.260846435546875,-0.8421786427497864,0.6604756116867065,3.4632904529571533
1680290587744905200,1.2709052734375,-0.89696204662323,0.804315984249115,3.7620019912719727
1680290587754964200,1.280964111328125,-0.9493935704231262,0.8793202042579651,4.05913782119751
1680290587765023200,1.291023193359375,-0.9982666373252869,1.0291836261749268,4.370364189147949
1680290587775082200,1.301082275390625,-1.037416696548462,1.0146805047988892,4.704037189483643
1680290587785141200,1.311141357421875,-1.0668258666992188,0.9066123962402344,5.03595495223999
1680290587795200300,1.3212001953125,-1.1118807792663574,0.6597818732261658,5.385398864746094
1680290587805259300,1.33125927734375,-1.1751346588134766,0.45535457134246826,5.725080966949463
1680290587815318300,1.341318359375,-1.2653290033340454,0.35662877559661865,6.066614627838135
1680290587825377300,1.351377197265625,-1.3750278949737549,0.3392940163612366,6.430530548095703
1680290587835436300,1.361436279296875,-1.4876129627227783,0.5118929147720337,6.79110860824585
1680290587845495300,1.371495361328125,-1.6002657413482666,0.7340905666351318,7.16621732711792
1680290587855554300,1.38155419921875,-1.722235918045044,0.7813880443572998,7.550006866455078
1680290587865613300,1.39161328125,-1.8405486345291138,0.9943078756332397,7.88601016998291
1680290587875672300,1.40167236328125,-1.9368658065795898,1.2337443828582764,8.217135429382324
1680290587885731300,1.4117314453125,-2.0099246501922607,1.2704651355743408,8.523175239562988
1680290587895790300,1.421790283203125,-2.067413330078125,1.2713687419891357,8.790990829467773
1680290587905849300,1.431849365234375,-2.1252715587615967,1.0917997360229492,9.022573471069336
1680290587915908400,1.441908447265625,-2.1886861324310303,0.9077427387237549,9.208060264587402
1680290587925967000,1.451967041015625,-2.2158632278442383,1.0808720588684082,9.297342300415039
1680290587936026400,1.4620263671875,-2.2259562015533447,1.059615969657898,9.349626541137695
1680290587946085000,1.472085205078125,-2.20965313911438,0.9904606342315674,9.323263168334961
1680290587956144400,1.482144287109375,-2.1626226902008057,0.9650261402130127,9.242170333862305
1680290587966203100,1.492203125,-2.094388723373413,0.9099730253219604,9.121068954467773
1680290587976262400,1.502262451171875,-1.9544652700424194,0.7553182244300842,8.983224868774414
1680290587986321200,1.512321044921875,-1.7550920248031616,0.6516996026039124,8.806730270385742
1680290587996380400,1.52238037109375,-1.6693552732467651,0.4374754726886749,8.619707107543945
1680290588006439200,1.532439208984375,-1.720198154449463,0.17222312092781067,8.41755199432373
1680290588016498400,1.54249853515625,-1.8205080032348633,0.17228063941001892,8.190938949584961
1680290588026557200,1.55255712890625,-1.9368622303009033,0.13220781087875366,7.9551825523376465
1680290588036616400,1.562616455078125,-1.979215383529663,0.11839345842599869,7.704381942749023
1680290588046675200,1.57267529296875,-1.9485678672790527,0.259502112865448,7.427015781402588
1680290588056734200,1.582734130859375,-1.9092156887054443,0.4857296943664551,7.143557071685791
1680290588066793200,1.592793212890625,-1.8432536125183105,0.7714851498603821,6.839542388916016
1680290588076852200,1.602852294921875,-1.757607340812683,0.8862388730049133,6.540372848510742
1680290588086911200,1.6129111328125,-1.6711022853851318,0.8665298223495483,6.232807636260986
1680290588096970200,1.62297021484375,-1.5804693698883057,0.8787638545036316,5.898256301879883
1680290588107029200,1.633029296875,-1.4903420209884644,0.8210903406143188,5.581694602966309
1680290588117088300,1.643088134765625,-1.403815746307373,0.7671684622764587,5.250162601470947
1680290588127147300,1.653147216796875,-1.3225502967834473,0.6910743117332458,4.943303108215332
1680290588137206300,1.663206298828125,-1.2443138360977173,0.6182820796966553,4.62196683883667
1680290588147265300,1.673265380859375,-1.1615269184112549,0.7758788466453552,4.325239181518555
1680290588157324300,1.68332421875,-1.0640051364898682,0.9059702754020691,4.039969444274902
1680290588167383300,1.69338330078125,-0.9612466096878052,1.0144085884094238,3.7760496139526367
1680290588177442300,1.7034423828125,-0.8712708950042725,1.1446377038955688,3.5342063903808594
1680290588187501300,1.713501220703125,-0.7902582287788391,1.169101357460022,3.3157150745391846
1680290588197560300,1.723560302734375,-0.7135283350944519,1.0363712310791016,3.0976786613464355
1680290588207619000,1.733619140625,-0.6433083415031433,0.9446734189987183,2.8922178745269775
1680290588217678300,1.74367822265625,-0.5816466212272644,0.8296328186988831,2.690800428390503
1680290588227737000,1.753737060546875,-0.531768798828125,0.7128036618232727,2.5052261352539062
1680290588237796400,1.76379638671875,-0.48004940152168274,0.697982132434845,2.320744037628174
1680290588247855000,1.773855224609375,-0.4406786262989044,0.7302947044372559,2.136817216873169
1680290588257914400,1.783914306640625,-0.4084083139896393,0.8000890016555786,1.9451931715011597
1680290588267973000,1.79397314453125,-0.37933334708213806,0.7438788414001465,1.7399263381958008
1680290588278032400,1.804032470703125,-0.3426041007041931,0.7483801245689392,1.5026967525482178
1680290588288091100,1.814091064453125,-0.3107949495315552,0.7335008382797241,1.2373478412628174
1680290588298150400,1.824150390625,-0.30104511976242065,0.6225889921188354,0.9519048929214478
1680290588308209200,1.834209228515625,-0.29285719990730286,0.7642737030982971,0.6210951209068298
1680290588318268400,1.844268310546875,-0.29118821024894714,1.0238761901855469,0.269839346408844
1680290588328327200,1.8543271484375,-0.2698376476764679,1.1298255920410156,-0.14851535856723785
1680290588338386200,1.86438623046875,-0.2601027190685272,1.1859033107757568,-0.6311387419700623
1680290588348445200,1.874445068359375,-0.25715410709381104,1.104909062385559,-1.1795024871826172
1680290588358504200,1.884504150390625,-0.25583529472351074,0.986649215221405,-1.775826096534729
1680290588368563200,1.894563232421875,-0.2547549307346344,0.8493602871894836,-2.3974621295928955
1680290588378622200,1.904622314453125,-0.24583971500396729,0.9445022344589233,-3.0174925327301025
1680290588388681200,1.91468115234375,-0.2308042049407959,1.084718108177185,-3.6152656078338623
1680290588398740200,1.924740234375,-0.2174236923456192,0.9746557474136353,-4.186354160308838
1680290588408799200,1.93479931640625,-0.17133811116218567,0.7655590772628784,-4.772541522979736
1680290588418858200,1.944858154296875,-0.04244829714298248,0.7416217923164368,-5.399277210235596
1680290588428917200,1.954917236328125,0.1682756245136261,0.3802669942378998,-6.03441047668457
1680290588438976300,1.964976318359375,0.4652779996395111,0.2785302400588989,-6.731169700622559
1680290588449035300,1.97503515625,0.871279239654541,-0.09835395961999893,-7.389284133911133
1680290588459094300,1.98509423828125,1.400206208229065,-0.5748618841171265,-8.129372596740723
1680290588469153300,1.9951533203125,2.014200210571289,-1.3671714067459106,-8.875894546508789
1680290588479212300,2.00521240234375,2.7356441020965576,-2.083732843399048,-9.650312423706055
1680290588489271000,2.01527099609375,3.5196533203125,-3.1532058715820312,-10.417283058166504
1680290588499330300,2.025330322265625,4.398518085479736,-3.868577241897583,-11.07738208770752
1680290588509389000,2.03538916015625,5.270657062530518,-4.121383190155029,-11.652959823608398
1680290588519448300,2.0454482421875,6.008446216583252,-3.7730095386505127,-12.000571250915527
1680290588529507000,2.055507080078125,6.381332874298096,-3.4061639308929443,-12.156108856201172
1680290588539566300,2.06556640625,6.492112159729004,-3.623889923095703,-11.990038871765137
1680290588549625000,2.075625,6.352241039276123,-2.6472625732421875,-11.226598739624023
1680290588559684400,2.085684326171875,6.023823261260986,-2.358527183532715,-10.758166313171387
1680290588569743000,2.0957431640625,5.6439127922058105,-2.933717727661133,-10.162657737731934
1680290588579802400,2.10580224609375,5.571023941040039,-2.6448802947998047,-9.469298362731934
1680290588589861000,2.115861083984375,5.53025484085083,-2.668191909790039,-8.450850486755371
1680290588599920400,2.12592041015625,5.377898693084717,-3.1376609802246094,-7.565992832183838
1680290588609979100,2.135979248046875,4.940428256988525,-3.5368216037750244,-6.214052677154541
1680290588620038100,2.1460380859375,4.317666053771973,-3.5525269508361816,-5.194158554077148
1680290588630097200,2.15609716796875,3.5062944889068604,-2.7067489624023438,-4.072118282318115
1680290588640156200,2.16615625,2.624511957168579,-1.0283602476119995,-3.29693603515625
1680290588650215200,2.176215087890625,1.7451690435409546,0.774624764919281,-2.638305187225342
1680290588660274200,2.186274169921875,0.932136058807373,2.3683691024780273,-2.1448094844818115
1680290588670333200,2.196333251953125,0.22528484463691711,3.214409589767456,-1.6627005338668823
1680290588680392200,2.20639208984375,-0.3445543944835663,3.528219699859619,-1.2210499048233032
1680290588690451200,2.216451171875,-0.7853280305862427,3.41481876373291,-0.7729677557945251
1680290588700510200,2.22651025390625,-1.079453945159912,3.000589609146118,-0.430930495262146
1680290588710569200,2.2365693359375,-1.2589765787124634,2.7042436599731445,-0.15200194716453552
1680290588720628200,2.246628173828125,-1.3401873111724854,2.336805582046509,0.06032522767782211
1680290588730687200,2.256687255859375,-1.332450270652771,2.2945737838745117,0.17154942452907562
1680290588740746200,2.266746337890625,-1.2590564489364624,2.331073045730591,0.2639360725879669
1680290588750805200,2.27680517578125,-1.1222732067108154,2.2122066020965576,0.30320486426353455
1680290588760864300,2.2868642578125,-0.8224965333938599,2.0438625812530518,0.28239065408706665
1680290588770923300,2.29692333984375,-0.6010005474090576,1.9140223264694214,0.21989209949970245
1680290588780982300,2.306982177734375,-0.5707129240036011,1.6164308786392212,0.14338134229183197
1680290588791041000,2.317041015625,-0.5690194964408875,1.176559329032898,0.035099223256111145
1680290588801100300,2.327100341796875,-0.5433985590934753,0.9293678998947144,-0.059432610869407654
1680290588811159000,2.337158935546875,-0.46702057123184204,0.8401923775672913,-0.14487645030021667
1680290588821218300,2.34721826171875,-0.3658508062362671,0.7885779142379761,-0.22719742357730865
1680290588831277000,2.357277099609375,-0.2768273651599884,0.8218507766723633,-0.2800374925136566
1680290588841336300,2.36733642578125,-0.21977552771568298,0.7678924798965454,-0.31062018871307373
1680290588851395000,2.37739501953125,-0.16016529500484467,0.6188458800315857,-0.3224124312400818
1680290588861454300,2.387454345703125,-0.11517863720655441,0.5981989502906799,-0.3009641170501709
1680290588871513000,2.39751318359375,-0.07136502116918564,0.5999093055725098,-0.24527607858181
1680290588881572400,2.407572265625,-0.03063223510980606,0.395546555519104,-0.18460127711296082
1680290588891631000,2.417631103515625,-0.00019691884517669678,0.30019840598106384,-0.111032634973526
1680290588901690400,2.4276904296875,0.020333921536803246,0.19539740681648254,-0.024807734414935112
1680290588911749000,2.4377490234375,0.036509282886981964,-0.019150741398334503,0.06373964995145798
1680290588921808100,2.44780810546875,0.04069843888282776,-0.1216355711221695,0.14224404096603394
1680290588931867100,2.4578671875,0.0344550758600235,-0.07918883860111237,0.24174124002456665
1680290588941926100,2.467926025390625,0.0193693358451128,-0.010269425809383392,0.32140490412712097
1680290588951985400,2.4779853515625,-0.0018089739605784416,0.0556195005774498,0.38329166173934937
1680290588962044200,2.488044189453125,-0.0257720984518528,0.08698993921279907,0.4222832918167114
1680290588972103400,2.498103515625,-0.046696990728378296,0.024860110133886337,0.43444961309432983
1680290588982162200,2.508162109375,-0.0687495619058609,-0.00894792191684246,0.4253014028072357
1680290588992221400,2.518221435546875,-0.0824543759226799,0.011940116062760353,0.4067492187023163
1680290589002280200,2.5282802734375,-0.08532552421092987,0.062188901007175446,0.3792020082473755
1680290589012339500,2.53833935546875,-0.08769668638706207,0.08603840321302414,0.35294103622436523
1680290589022398200,2.548398193359375,-0.0878940224647522,0.09027895331382751,0.3174176812171936
1680290589032457500,2.55845751953125,-0.08574625849723816,0.11987276375293732,0.2736983299255371
1680290589042516200,2.56851611328125,-0.07551412284374237,0.15526457130908966,0.22711431980133057
1680290589052575200,2.5785751953125,-0.05850133299827576,0.1734776496887207,0.17944975197315216
1680290589062634200,2.58863427734375,-0.03312619775533676,0.18538862466812134,0.12858206033706665
1680290589072693200,2.598693359375,-0.016092263162136078,0.22050170600414276,0.08476296067237854
1680290589082752300,2.608752197265625,-0.0032544946298003197,0.25904136896133423,0.054553400725126266
1680290589092811300,2.618811279296875,0.00317365862429142,0.2332679033279419,0.031561195850372314
1680290589102870300,2.628870361328125,-0.006032090168446302,0.1458730846643448,0.019918125122785568
1680290589112929300,2.63892919921875,-0.015645895153284073,0.0710085779428482,0.010943420231342316
1680290589122988300,2.64898828125,-0.02664688043296337,0.03294375166296959,0.007373719476163387
1680290589133047300,2.65904736328125,-0.03720686584711075,0.026539424434304237,0.013190247118473053
1680290589143106300,2.669106201171875,-0.0436147004365921,0.07222168892621994,0.014913578517735004
1680290589153165300,2.679165283203125,-0.052141305059194565,0.13748833537101746,0.023379508405923843
1680290589163224300,2.689224365234375,-0.06746166944503784,0.20407456159591675,0.03351842984557152
1680290589173283300,2.699283447265625,-0.08715227246284485,0.19670800864696503,0.03607862815260887
1680290589183342300,2.70934228515625,-0.10320954024791718,0.18911907076835632,0.03857747092843056
1680290589193401300,2.7194013671875,-0.11867096275091171,0.23480010032653809,0.032933466136455536
1680290589203460000,2.729460205078125,-0.130821093916893,0.25829610228538513,0.025461170822381973
1680290589213519400,2.739519287109375,-0.13776613771915436,0.26561203598976135,0.0072724707424640656
1680290589223578000,2.749578125,-0.1463678926229477,0.30297085642814636,-0.017816636711359024
1680290589233637400,2.759637451171875,-0.15874506533145905,0.3123500645160675,-0.04117927700281143
1680290589243696000,2.769696044921875,-0.1816040426492691,0.2945902347564697,-0.060690395534038544
1680290589253755400,2.77975537109375,-0.2003014236688614,0.3010898232460022,-0.06773644685745239
1680290589263814100,2.789814208984375,-0.2156907618045807,0.28611356019973755,-0.0695740282535553
1680290589273873400,2.799873291015625,-0.23757152259349823,0.30721330642700195,-0.06953290104866028
1680290589283932200,2.80993212890625,-0.24638152122497559,0.409878134727478,-0.06912890076637268
1680290589293991400,2.819991455078125,-0.25088250637054443,0.5337865352630615,-0.07137750089168549
1680290589304050200,2.83005029296875,-0.25554782152175903,0.5874367356300354,-0.07578609138727188
1680290589314109400,2.840109375,-0.2639778256416321,0.5661956071853638,-0.07722288370132446
1680290589324168200,2.850168212890625,-0.27048367261886597,0.5335404276847839,-0.0723133459687233
1680290589334227200,2.860227294921875,-0.2815263569355011,0.5205644965171814,-0.06437114626169205
1680290589344286200,2.8702861328125,-0.28345024585723877,0.5380769371986389,-0.051299020648002625
1680290589354345200,2.88034521484375,-0.2793595492839813,0.5896102786064148,-0.036260999739170074
1680290589364404200,2.890404296875,-0.26770076155662537,0.6144019365310669,-0.018023408949375153
1680290589374463200,2.900463134765625,-0.2612013518810272,0.6310394406318665,-0.006324248854070902
1680290589384522200,2.910522216796875,-0.2575267255306244,0.6522677540779114,0.008877074345946312
1680290589394581200,2.920581298828125,-0.2615633010864258,0.6024786233901978,0.023857982829213142
1680290589404640300,2.93064013671875,-0.2582295536994934,0.5291386246681213,0.029117459431290627
1680290589414699300,2.94069921875,-0.24810881912708282,0.5136921405792236,0.03370435908436775
1680290589424758300,2.95075830078125,-0.22821420431137085,0.5382710099220276,0.03701653331518173
1680290589434817300,2.9608173828125,-0.2034127563238144,0.5960432291030884,0.03629498928785324
1680290589444876300,2.970876220703125,-0.18016256392002106,0.6012369394302368,0.03160623088479042
1680290589454935300,2.980935302734375,-0.16112875938415527,0.5765285491943359,0.026129141449928284
1680290589464994300,2.990994384765625,-0.15174032747745514,0.5321211218833923,0.009413808584213257
1680290589475053300,3.00105322265625,-0.1410820335149765,0.4232410788536072,0.0005977079272270203
1680290589485112000,3.011112060546875,-0.1337471604347229,0.3647732436656952,-0.016934679821133614
1680290589495171300,3.02117138671875,-0.1264232099056244,0.43296104669570923,-0.026581015437841415
1680290589505230000,3.03122998046875,-0.11977116763591766,0.48572438955307007,-0.030613042414188385
1680290589515289300,3.041289306640625,-0.11126867681741714,0.45829710364341736,-0.03600414842367172
