time,seconds_elapsed,z,y,x
1.68029E+18,0.812432617,-2.573902845,-1.519135356,4.142513752
1.68029E+18,0.822507813,-2.610933542,-1.611489296,4.217300892
1.68029E+18,0.83258252,-2.637592077,-1.71067977,4.301823139
1.68029E+18,0.842658691,-2.653928518,-1.764922738,4.420766354
1.68029E+18,0.852733643,-2.672176361,-1.698621869,4.548406124
1.68029E+18,0.862808594,-2.687970161,-1.687545538,4.692234039
1.68029E+18,0.872883789,-2.697880268,-1.673749685,4.799186707
1.68029E+18,0.882959717,-2.689172506,-1.685002923,4.897600651
1.68029E+18,0.893034668,-2.663887739,-1.795606136,4.966546535
1.68029E+18,0.903109619,-2.647148848,-1.998420119,5.003988266
1.68029E+18,0.913185547,-2.649322987,-2.229102373,5.040397644
1.68029E+18,0.923260498,-2.670542479,-2.44778657,5.094205856
1.68029E+18,0.933335693,-2.683035135,-2.641723394,5.148766518
1.68029E+18,0.943410645,-2.696574211,-2.803454876,5.223057747
1.68029E+18,0.953486572,-2.720261097,-2.864081383,5.300165176
1.68029E+18,0.963561523,-2.758972883,-2.840735674,5.382930756
1.68029E+18,0.973636719,-2.817533255,-2.815603256,5.459059715
1.68029E+18,0.983712891,-2.904381514,-2.768769026,5.556746483
1.68029E+18,0.993787598,-2.977855682,-2.620506525,5.662970066
1.68029E+18,1.003862549,-2.999448061,-2.414143562,5.795691013
1.68029E+18,1.0139375,-2.962001324,-2.226572275,5.926535606
1.68029E+18,1.024013672,-2.875528574,-2.139005661,6.030961514
1.68029E+18,1.034088867,-2.717576265,-2.130222082,6.103956699
1.68029E+18,1.044163574,-2.546703577,-2.142081261,6.140584946
1.68029E+18,1.054239502,-2.420064926,-2.097278118,6.142510414
1.68029E+18,1.064314697,-2.312168837,-2.012312174,6.138155937
1.68029E+18,1.074389648,-2.251084089,-1.91233325,6.120481968
1.68029E+18,1.0844646,-2.209320307,-1.868959188,6.096122265
1.68029E+18,1.094540527,-2.160843849,-1.79648912,6.060844898
1.68029E+18,1.104615479,-2.125756502,-1.778535962,6.030844212
1.68029E+18,1.114690674,-2.11055398,-1.7989012,5.962963104
1.68029E+18,1.124766846,-2.0819695,-1.896295667,5.881505966
1.68029E+18,1.134841553,-2.003059864,-2.048848867,5.769965649
1.68029E+18,1.144916504,-1.910132527,-2.229985952,5.639091492
1.68029E+18,1.154991699,-1.827456474,-2.27138567,5.515123367
1.68029E+18,1.165067871,-1.763385892,-2.119156837,5.425580502
1.68029E+18,1.175142822,-1.694328904,-1.850112796,5.355579376
1.68029E+18,1.185217529,-1.610862017,-1.55732131,5.290752888
1.68029E+18,1.195293701,-1.492558956,-1.382850289,5.216743946
1.68029E+18,1.205368652,-1.337786317,-1.312198758,5.084367275
1.68029E+18,1.215443848,-1.186414599,-1.235871673,4.968801975
1.68029E+18,1.225518555,-1.054229736,-1.250174999,4.831515789
1.68029E+18,1.235594482,-0.955574095,-1.345728636,4.666364193
1.68029E+18,1.245669678,-0.901300728,-1.37778914,4.510094643
1.68029E+18,1.255744629,-0.881846607,-1.402645111,4.375885963
1.68029E+18,1.265820557,-0.872367084,-1.14991188,4.270316124
1.68029E+18,1.275895508,-0.87292856,-0.701853454,4.241083145
1.68029E+18,1.285970703,-0.901572466,-0.497859031,4.196545601
1.68029E+18,1.296045654,-0.936797082,-0.64393115,4.092284203
1.68029E+18,1.306121826,-0.981989622,-1.112010241,3.961687088
1.68029E+18,1.316196777,-1.006666303,-1.462255955,3.803738117
1.68029E+18,1.326271484,-1.044032335,-1.624747634,3.65262413
1.68029E+18,1.336347656,-1.102336764,-1.832164645,3.496582508
1.68029E+18,1.346422852,-1.195250988,-1.770319104,3.322165012
1.68029E+18,1.356497803,-1.294441462,-1.459215879,3.187752008
1.68029E+18,1.36657251,-1.398168445,-1.086962938,3.043939829
1.68029E+18,1.376648682,-1.505323887,-0.663466573,2.882502317
1.68029E+18,1.386723633,-1.593480349,-0.300370127,2.716489315
1.68029E+18,1.396798828,-1.668451548,-0.040971097,2.497638702
1.68029E+18,1.406874756,-1.7610991,0.027378932,2.25273633
1.68029E+18,1.416949463,-1.854941845,0.006432831,1.991190553
1.68029E+18,1.427024658,-1.926020265,0.134634465,1.740826249
1.68029E+18,1.437099609,-2.023966789,0.320516765,1.529476523
1.68029E+18,1.447175537,-2.119553328,0.592134416,1.330996513
1.68029E+18,1.457250977,-2.21164012,0.876270294,1.155099511
1.68029E+18,1.467325684,-2.305057287,1.006429315,0.974224746
1.68029E+18,1.477401855,-2.393937349,1.036939502,0.7722103
1.68029E+18,1.487476807,-2.455398321,1.018172741,0.533417404
1.68029E+18,1.497551758,-2.490717888,1.037416339,0.31207943
1.68029E+18,1.507626709,-2.484837294,1.253386736,0.074819185
1.68029E+18,1.517702881,-2.462408066,1.438003898,-0.153100908
1.68029E+18,1.527777832,-2.432744741,1.513305068,-0.383937329
1.68029E+18,1.537852783,-2.396698713,1.53560245,-0.602487266
1.68029E+18,1.547928955,-2.34479332,1.513691545,-0.802494109
1.68029E+18,1.558003662,-2.294603109,1.403886437,-1.009691
1.68029E+18,1.568078857,-2.25080514,1.216964245,-1.207072258
1.68029E+18,1.578154053,-2.214141369,0.898331761,-1.402541637
1.68029E+18,1.58822998,-2.171254873,0.666118741,-1.602337003
1.68029E+18,1.598304932,-2.104813814,0.535637319,-1.785703301
1.68029E+18,1.608379883,-2.021265745,0.529192209,-1.931154847
1.68029E+18,1.618455811,-1.939988017,0.631529093,-2.082098246
1.68029E+18,1.628530762,-1.848114848,0.58082968,-2.226877689
1.68029E+18,1.638605957,-1.759963393,0.408067793,-2.374855757
1.68029E+18,1.648680664,-1.630491376,0.229548633,-2.571428537
1.68029E+18,1.658756836,-1.456802368,0.168048933,-2.772877693
1.68029E+18,1.668831787,-1.226379037,-0.007317026,-3.05594635
1.68029E+18,1.678906738,-0.960187435,-0.073670276,-3.532911777
1.68029E+18,1.68898291,-0.595762372,0.015437229,-4.143760681
1.68029E+18,1.699058105,-0.176441953,-0.430864304,-4.960018158
1.68029E+18,1.709132813,0.255582422,-0.915895224,-6.040213108
1.68029E+18,1.71920874,0.790668905,-1.214063168,-7.24708271
1.68029E+18,1.729283936,1.399626255,-1.759564042,-8.678943634
1.68029E+18,1.739358887,2.116489172,-1.873250127,-10.25662231
1.68029E+18,1.749433838,2.857396126,-1.643961906,-11.95798683
1.68029E+18,1.759509766,3.600277424,-1.08321929,-13.82526779
1.68029E+18,1.769584961,4.288730145,-0.315292776,-15.68634319
1.68029E+18,1.779659912,4.940442562,0.148490757,-17.49313164
1.68029E+18,1.789736084,5.703578949,0.289913923,-18.89922142
1.68029E+18,1.799810791,6.603075981,1.134148002,-19.42656136
1.68029E+18,1.809885742,8.494961739,-1.676658392,-16.36498451
1.68029E+18,1.819960938,8.612080574,0.309656143,-17.69152832
1.68029E+18,1.830037109,8.086720467,4.563623905,-14.89561749
1.68029E+18,1.840111816,7.617311001,5.558721542,-13.59926891
1.68029E+18,1.850186768,7.096355438,3.096395254,-12.65147114
1.68029E+18,1.860262939,6.352378368,1.777963638,-11.00963593
1.68029E+18,1.870337891,5.491044998,1.401666641,-8.917264938
1.68029E+18,1.880413086,4.616509438,1.311722517,-6.886363983
1.68029E+18,1.890487793,3.834749699,1.00363338,-5.081712246
1.68029E+18,1.900563721,3.245567322,0.931483328,-3.389085054
1.68029E+18,1.910638916,2.780157328,1.802925825,-1.726522803
1.68029E+18,1.920713867,2.432192802,3.066248417,-0.345313698
1.68029E+18,1.930789795,2.190347433,3.724254131,0.554756761
1.68029E+18,1.940864746,2.053430796,3.665562868,0.998729169
1.68029E+18,1.950939941,1.944073081,2.803096056,1.08338666
1.68029E+18,1.961014893,1.783586383,1.462733984,0.890692472
1.68029E+18,1.971091064,1.57449019,0.047467321,0.55100286
1.68029E+18,1.981165771,1.337108493,-1.140555382,0.22042267
1.68029E+18,1.991240723,1.081189871,-2.055613518,-0.064951546
1.68029E+18,2.001316895,0.867071569,-2.583712101,-0.350043446
1.68029E+18,2.01139209,0.718341231,-2.601351261,-0.661006331
1.68029E+18,2.021467041,0.653775811,-2.260028124,-0.903238416
1.68029E+18,2.031541748,0.683835208,-1.620454907,-1.104534745
1.68029E+18,2.04161792,0.787379026,-0.669711411,-1.260823965
1.68029E+18,2.051692871,0.821191311,0.404296726,-1.388536215
1.68029E+18,2.061768066,0.748091578,1.102202296,-1.491106272
1.68029E+18,2.071843994,0.66528964,1.359631181,-1.616976619
1.68029E+18,2.081918701,0.612297118,1.313295722,-1.767866492
1.68029E+18,2.091993896,0.572796583,1.205114126,-1.939350843
1.68029E+18,2.102068848,0.546876669,1.123888135,-2.025682688
1.68029E+18,2.112144775,0.523091435,1.025208116,-2.073764801
1.68029E+18,2.122219727,0.473726481,0.957750678,-2.104582071
1.68029E+18,2.132294922,0.392857462,0.880472422,-2.067321539
1.68029E+18,2.14237085,0.272279084,0.846562147,-1.96609807
1.68029E+18,2.152446045,0.153915167,0.767378151,-1.841118336
1.68029E+18,2.162520996,0.054693725,0.566964686,-1.750181317
1.68029E+18,2.172595703,-0.013787599,0.340720385,-1.679501772
1.68029E+18,2.182671875,-0.040250324,0.240922451,-1.560420156
1.68029E+18,2.19274707,-0.030002214,0.257519037,-1.390230417
1.68029E+18,2.202822021,-0.009584635,0.385195464,-1.194707155
1.68029E+18,2.212897949,-0.002304617,0.496728659,-0.946728349
1.68029E+18,2.2229729,-0.0249421,0.588647306,-0.683164239
1.68029E+18,2.233047852,-0.068471737,0.610912144,-0.428358853
1.68029E+18,2.243123047,-0.115444414,0.55874598,-0.239736795
1.68029E+18,2.253198975,-0.162829503,0.398231417,-0.090521999
1.68029E+18,2.263273682,-0.19625701,0.216055498,0.025800506
1.68029E+18,2.273348877,-0.21124129,0.060694411,0.125891685
1.68029E+18,2.283424805,-0.209713176,-0.041885331,0.196197435
1.68029E+18,2.293499756,-0.194492131,-0.051927578,0.281608999
1.68029E+18,2.303574951,-0.167436495,-0.018395022,0.397318631
1.68029E+18,2.313649902,-0.142416909,0.026986308,0.493082434
1.68029E+18,2.32372583,-0.126426756,0.068638414,0.57558316
1.68029E+18,2.333800781,-0.110387862,0.118980147,0.650994301
1.68029E+18,2.343875977,-0.097035244,0.156114593,0.722709358
1.68029E+18,2.353951904,-0.091253787,0.160786048,0.757091582
1.68029E+18,2.364026855,-0.076057516,0.156534091,0.75989598
1.68029E+18,2.374102051,-0.054241966,0.158682987,0.764911771
1.68029E+18,2.384176758,-0.024934486,0.174643576,0.773697436
1.68029E+18,2.39425293,0.005908914,0.204925314,0.76152575
1.68029E+18,2.404327881,0.02937506,0.217125401,0.752006829
1.68029E+18,2.414402832,0.037878796,0.221403241,0.743016779
1.68029E+18,2.42447876,0.030533941,0.190945983,0.737780809
1.68029E+18,2.434553955,-0.000209323,0.136343449,0.705279291
1.68029E+18,2.444628906,-0.025949189,0.006164487,0.654205799
1.68029E+18,2.454703857,-0.05391451,-0.159734473,0.595509171
1.68029E+18,2.464779785,-0.073837437,-0.253104657,0.540172338
1.68029E+18,2.47485498,-0.084287681,-0.217293918,0.488834023
1.68029E+18,2.484929932,-0.081899732,-0.081804603,0.455820978
1.68029E+18,2.495006104,-0.079318598,0.112725735,0.45684123
1.68029E+18,2.505081055,-0.083911061,0.333717525,0.475678146
1.68029E+18,2.515155762,-0.093881406,0.573105872,0.500460744
1.68029E+18,2.525230957,-0.108971372,0.822214842,0.546472371
1.68029E+18,2.535307129,-0.131792009,1.006314874,0.604327142
1.68029E+18,2.545381836,-0.162464976,1.1159482,0.636923671
1.68029E+18,2.555457031,-0.190249205,1.13412106,0.66121459
1.68029E+18,2.565532959,-0.22014913,1.071127653,0.681950212
1.68029E+18,2.575608154,-0.246140778,0.965712488,0.707944512
1.68029E+18,2.585683105,-0.266086549,0.891961694,0.756198525
1.68029E+18,2.595759033,-0.284626395,0.860959053,0.816174746
1.68029E+18,2.605833984,-0.304101527,0.798186719,0.885953486
1.68029E+18,2.615908936,-0.320457578,0.743891835,0.958452404
1.68029E+18,2.625984131,-0.33716929,0.696751952,1.027931571
1.68029E+18,2.636060059,-0.349139661,0.694319427,1.096909761
1.68029E+18,2.646134766,-0.359805375,0.76832062,1.181578159
1.68029E+18,2.656209961,-0.354960024,0.83345592,1.257611156
1.68029E+18,2.666284912,-0.35115099,0.815252542,1.304973364
1.68029E+18,2.676361084,-0.350774944,0.676647782,1.307214141
1.68029E+18,2.686436279,-0.354715258,0.422148198,1.285506129
1.68029E+18,2.696510742,-0.373803705,0.105184346,1.247922063
1.68029E+18,2.706586914,-0.403398991,-0.162387714,1.208828926
1.68029E+18,2.716662109,-0.449189633,-0.387158751,1.198820829
1.68029E+18,2.726737061,-0.48731944,-0.502475083,1.207693338
1.68029E+18,2.736812744,-0.52846849,-0.49223578,1.235382438
1.68029E+18,2.746887939,-0.560992599,-0.299269259,1.282907009
1.68029E+18,2.756963135,-0.58707422,0.010691773,1.338628769
1.68029E+18,2.767038086,-0.607932031,0.293995857,1.380562425
1.68029E+18,2.777114014,-0.631768107,0.493941754,1.392415881
1.68029E+18,2.787188965,-0.655160487,0.620827138,1.3758775
1.68029E+18,2.797263916,-0.685826242,0.702082813,1.357183099
1.68029E+18,2.807340088,-0.715714514,0.779151261,1.339437723
1.68029E+18,2.817415039,-0.743269682,0.841682017,1.320791006
