time,seconds_elapsed,z,y,x
1680291063675413000,2.6004130859375,0.164252936840057,0.0843692123889923,0.317527741193771
1680291063685411300,2.61041137695312,0.182456716895103,0.104807019233703,0.327703028917312
1680291063695412700,2.62041284179687,0.205913946032524,0.120846599340438,0.344807237386703
1680291063705411300,2.63041137695312,0.236666649580001,0.174986705183982,0.366815835237503
1680291063715411200,2.6404111328125,0.274889349937438,0.247382968664169,0.400343626737594
1680291063725411300,2.65041137695312,0.321384936571121,0.317318320274353,0.435093134641647
1680291063735411200,2.6604111328125,0.371615499258041,0.306776523590087,0.451062887907028
1680291063745412900,2.67041284179687,0.41709879040718,0.23345524072647,0.462163180112838
1680291063755411200,2.6804111328125,0.456421047449111,0.143221721053123,0.469266682863235
1680291063765412900,2.69041284179687,0.483508557081222,0.0920137614011764,0.503073692321777
1680291063775412700,2.70041284179687,0.497017413377761,0.132243603467941,0.572433114051818
1680291063785412900,2.71041284179687,0.502009034156799,0.306078404188156,0.687188506126403
1680291063795411200,2.7204111328125,0.497506111860275,0.448043465614318,0.808925211429596
1680291063805411300,2.73041137695312,0.485620409250259,0.416714817285537,0.919177651405334
1680291063815416000,2.740416015625,0.458236187696456,0.305275529623031,1.01640999317169
1680291063825411300,2.75041137695312,0.396975129842758,0.185720488429069,1.11824989318847
1680291063835411200,2.7604111328125,0.308591663837432,0.0981224104762077,1.23180103302001
1680291063845412900,2.77041284179687,0.210277274250984,-0.0216595362871885,1.35723781585693
1680291063855412700,2.78041284179687,0.107791535556316,-0.173101752996444,1.4789570569992
1680291063865419000,2.7904189453125,0.0137008344754576,-0.340740621089935,1.61741411685943
1680291063875413000,2.8004130859375,-0.0854513198137283,-0.414009541273117,1.75717997550964
1680291063885412900,2.81041284179687,-0.183643549680709,-0.408791005611419,1.93059599399566
1680291063895412700,2.82041284179687,-0.284453749656677,-0.38638100028038,2.07877445220947
1680291063905411300,2.83041137695312,-0.390430152416229,-0.315398454666137,2.25089883804321
1680291063915411200,2.8404111328125,-0.493317306041717,-0.195197626948356,2.43017888069152
1680291063925411300,2.85041137695312,-0.610132217407226,0.0232303328812122,2.65831089019775
1680291063935411200,2.8604111328125,-0.735219955444335,0.20013689994812,2.90047550201416
1680291063945411300,2.87041137695312,-0.867760241031646,0.347809225320816,3.16405510902404
1680291063955413000,2.8804130859375,-1.01679396629333,0.340984970331192,3.43231225013732
1680291063965411300,2.89041137695312,-1.16858518123626,0.356553316116333,3.73673248291015
1680291063975411200,2.9004111328125,-1.31013143062591,0.27207937836647,4.01041746139526
1680291063985411300,2.91041137695312,-1.44352686405181,0.114353969693183,4.31541395187377
1680291063995411200,2.9204111328125,-1.57414734363555,-0.0725184306502342,4.60175275802612
1680291064005411300,2.93041137695312,-1.70150399208068,-0.324160009622573,4.89364147186279
1680291064015412700,2.94041284179687,-1.82304871082305,-0.539044916629791,5.16922903060913
1680291064025411300,2.95041137695312,-1.95900988578796,-0.631442666053772,5.48780393600463
1680291064035413000,2.9604130859375,-2.09392380714416,-0.720594108104705,5.77953577041626
1680291064045411300,2.97041137695312,-2.26247024536132,-0.840899646282196,6.09318876266479
1680291064055412700,2.98041284179687,-2.41410446166992,-1.14374911785125,6.36095714569091
1680291064065412900,2.99041284179687,-2.59149980545043,-1.36805891990661,6.66441774368286
1680291064075413000,3.0004130859375,-2.77317118644714,-1.47113800048828,6.96599292755126
1680291064085412900,3.01041284179687,-2.95266079902648,-1.46602416038513,7.30418539047241
1680291064095411200,3.0204111328125,-3.10998463630676,-1.41807997226715,7.61317873001098
1680291064105412900,3.03041284179687,-3.24343252182006,-1.08430325984954,7.99153089523315
1680291064115411200,3.0404111328125,-3.32883167266845,-0.95408421754837,8.31834411621093
1680291064125411300,3.05041137695312,-3.44269680976867,-1.08934724330902,8.58166217803955
1680291064135411200,3.0604111328125,-3.56656289100646,-1.38865375518798,8.80330085754394
1680291064145411300,3.07041137695312,-3.7161898612976,-1.68539464473724,8.99762630462646
1680291064155411200,3.0804111328125,-3.8765332698822,-1.76138627529144,9.20753669738769
1680291064165411300,3.09041137695312,-4.02738237380981,-1.65561926364898,9.43264961242675
1680291064175411200,3.1004111328125,-4.14210271835327,-1.59386956691741,9.6090669631958
1680291064185412900,3.11041284179687,-4.27506160736084,-1.52335822582244,9.73610973358154
1680291064195411200,3.1204111328125,-4.38260889053344,-1.40584528446197,9.81157779693603
1680291064205411300,3.13041137695312,-4.48699712753295,-1.38275456428527,9.81545257568359
1680291064215411200,3.1404111328125,-4.63339519500732,-1.39687430858612,9.77400112152099
1680291064225414400,3.15041430664062,-4.8465871810913,-1.56613624095916,9.63297843933105
1680291064235411200,3.1604111328125,-4.95827102661132,-1.69958412647247,9.46277332305908
1680291064245411300,3.17041137695312,-4.97982597351074,-1.83565008640289,9.22895240783691
1680291064255411200,3.1804111328125,-4.96500778198242,-1.97332155704498,8.94468975067138
1680291064265411300,3.19041137695312,-4.91713333129882,-2.09596586227417,8.59606075286865
1680291064275411200,3.2004111328125,-4.87540292739868,-1.98742389678955,8.23800659179687
1680291064285411300,3.21041137695312,-4.79660129547119,-1.77524423599243,7.85890340805053
1680291064295411200,3.2204111328125,-4.70858430862426,-1.41314077377319,7.49936580657959
1680291064305411300,3.23041137695312,-4.5974416732788,-0.797510743141174,7.1515736579895
1680291064315411200,3.2404111328125,-4.48888206481933,-0.50628513097763,6.78611946105957
1680291064325420800,3.2504208984375,-4.3796420097351,-0.553094863891601,6.30172061920166
1680291064335411200,3.2604111328125,-4.26293182373046,-0.560983717441558,5.79498195648193
1680291064345411300,3.27041137695312,-4.11984968185424,-0.47947683930397,5.22644090652465
1680291064355411200,3.2804111328125,-3.95662641525268,-0.327720463275909,4.67769193649292
1680291064365411300,3.29041137695312,-3.76715350151062,-0.0207868721336126,4.11703968048095
1680291064375411200,3.3004111328125,-3.56675481796264,0.322624117136001,3.58515071868896
1680291064385411300,3.31041137695312,-3.33933854103088,0.493858367204666,3.02764010429382
1680291064395411200,3.3204111328125,-3.09823870658874,0.775624334812164,2.47136878967285
1680291064405412900,3.33041284179687,-2.82994675636291,1.09824848175048,1.88373386859893
1680291064415416000,3.340416015625,-2.52444410324096,1.45445263385772,1.31997501850128
1680291064425411300,3.35041137695312,-2.22967553138732,1.76597654819488,0.682545900344848
1680291064435411200,3.3604111328125,-1.90359568595886,2.12383890151977,0.0872839167714119
1680291064445411300,3.37041137695312,-1.56697404384613,2.47124648094177,-0.486894488334655
1680291064455417600,3.38041748046875,-1.18710315227508,2.59774804115295,-1.04876840114593
1680291064465411300,3.39041137695312,-0.746721684932708,2.08661103248596,-1.79875373840332
1680291064475411200,3.4004111328125,-0.143727868795394,1.33870244026184,-2.77774381637573
1680291064485411300,3.41041137695312,0.478220224380493,0.885283350944519,-3.65779113769531
1680291064495411200,3.4204111328125,1.23173117637634,0.78579956293106,-4.63084697723388
1680291064505416000,3.430416015625,2.13047099113464,0.978972613811492,-5.92212915420532
1680291064515411200,3.4404111328125,3.0434353351593,1.59343326091766,-7.18133163452148
1680291064525411300,3.45041137695312,4.10995388031005,2.25362157821655,-8.62276458740234
1680291064535411200,3.4604111328125,5.08739042282104,2.59650897979736,-10.2128114700317
1680291064545411300,3.47041137695312,6.15546226501464,2.25623941421508,-11.9036512374877
1680291064555411200,3.4804111328125,7.11675453186035,1.24195885658264,-13.6336917877197
1680291064565411300,3.49041137695312,8.13936042785644,-0.508466780185699,-15.3117036819458
1680291064575411200,3.5004111328125,9.03012371063232,-1.63132429122924,-16.6586265563964
1680291064585411300,3.51041137695312,9.06166172027587,0.963317036628723,-16.5444812774658
1680291064595411200,3.5204111328125,8.09954929351806,2.05776071548461,-15.667384147644
1680291064605411300,3.53041137695312,8.27108001708984,3.91864824295043,-17.4368343353271
1680291064615411200,3.5404111328125,6.99988746643066,5.42893409729003,-16.703498840332
1680291064625411300,3.55041137695312,6.13680458068847,3.53008556365966,-16.3461952209472
1680291064635411200,3.5604111328125,5.61304855346679,2.10676956176757,-16.7697525024414
1680291064645414400,3.57041430664062,5.48705339431762,0.391861319541931,-15.8446226119995
1680291064655411200,3.5804111328125,5.13927888870239,-1.77527904510498,-15.3353700637817
1680291064665412900,3.59041284179687,5.24822235107421,-2.41588473320007,-14.0470027923583
1680291064675411200,3.6004111328125,4.94764184951782,-1.23462843894958,-12.7412700653076
1680291064685412900,3.61041284179687,4.24528646469116,0.810007274150848,-11.0279150009155
1680291064695412700,3.62041284179687,3.48535275459289,2.61172819137573,-9.69066143035888
1680291064705411300,3.63041137695312,2.70915246009826,3.59977650642395,-8.43641567230224
1680291064715411200,3.6404111328125,2.0311095714569,3.75149798393249,-7.49648571014404
1680291064725411300,3.65041137695312,1.61296343803405,3.1211199760437,-6.71742343902587
1680291064735416000,3.660416015625,1.33018517494201,2.60439777374267,-6.0073709487915
1680291064745411300,3.67041137695312,1.1584448814392,1.76400423049926,-5.41120147705078
1680291064755411200,3.6804111328125,1.04796552658081,0.98752474784851,-4.88695669174194
1680291064765411300,3.69041137695312,1.00064957141876,0.299568325281143,-4.40727043151855
1680291064775411200,3.7004111328125,1.00000381469726,-0.0049916417337954,-4.03890132904052
1680291064785416000,3.710416015625,1.09543848037719,-0.24954716861248,-3.86876654624938
1680291064795413000,3.7204130859375,1.21591854095458,-0.123883470892906,-3.71423506736755
1680291064805411300,3.73041137695312,1.35020411014556,0.501677453517913,-3.58844923973083
1680291064815411200,3.7404111328125,1.43528890609741,1.01593875885009,-3.49030947685241
1680291064825411300,3.75041137695312,1.47038757801055,1.26998877525329,-3.40122771263122
1680291064835417600,3.76041748046875,1.4635807275772,1.22113704681396,-3.29397726058959
1680291064845411300,3.77041137695312,1.42952942848205,0.646260499954223,-3.28715300559997
1680291064855411200,3.7804111328125,1.41760873794555,-0.0896575599908828,-3.28080010414123
1680291064865412900,3.79041284179687,1.41958093643188,-0.595558702945709,-3.22610139846801
1680291064875411200,3.8004111328125,1.43918108940124,-0.779359340667724,-3.09848308563232
1680291064885412900,3.81041284179687,1.46265566349029,-0.745465040206909,-2.88864207267761
1680291064895412700,3.82041284179687,1.4781367778778,-0.497523546218872,-2.62708711624145
1680291064905412900,3.83041284179687,1.47743868827819,-0.0110653871670365,-2.33565187454223
1680291064915411200,3.8404111328125,1.42928504943847,0.256161987781524,-2.09052038192749
1680291064925411300,3.85041137695312,1.35348534584045,0.225199833512306,-1.87746810913085
1680291064935411200,3.8604111328125,1.25229120254516,0.0739321485161781,-1.68448710441589
1680291064945411300,3.87041137695312,1.14713513851165,-0.127967536449432,-1.48834693431854
1680291064955411200,3.8804111328125,1.05114197731018,-0.283319294452667,-1.281787276268
1680291064965411300,3.89041137695312,0.967418551445007,-0.349030941724777,-1.05032169818878
1680291064975411200,3.9004111328125,0.901480019092559,-0.348123371601104,-0.820741057395935
1680291064985411300,3.91041137695312,0.850586235523223,-0.234781697392463,-0.57454490661621
1680291064995411200,3.9204111328125,0.821125030517578,0.0192160755395889,-0.311436563730239
1680291065005411300,3.93041137695312,0.803828835487365,0.342590689659118,-0.0630412921309471
1680291065015411200,3.9404111328125,0.781558454036712,0.643398165702819,0.165544480085372
1680291065025411300,3.95041137695312,0.754558205604553,0.87311840057373,0.385927200317382
1680291065035411200,3.9604111328125,0.718255341053009,1.00183641910552,0.591038286685943
1680291065045411300,3.97041137695312,0.659577369689941,1.0058856010437,0.780563592910766
1680291065055411200,3.9804111328125,0.589607119560241,0.951536059379577,0.964800536632537
1680291065065411300,3.99041137695312,0.508414387702941,0.834633886814117,1.13975238800048
1680291065075411200,4.0004111328125,0.42935100197792,0.647482216358184,1.29606401920318
1680291065085411300,4.01041137695312,0.362260550260543,0.434831321239471,1.43223464488983
1680291065095411200,4.0204111328125,0.319325447082519,0.274959176778793,1.55007922649383
1680291065105411300,4.03041137695312,0.285151898860931,0.129398703575134,1.63881182670593
1680291065115411200,4.0404111328125,0.262846589088439,-0.0247313156723976,1.69106698036193
1680291065125411300,4.05041137695312,0.228131979703903,-0.167394533753395,1.72454237937927
1680291065135411200,4.0604111328125,0.180641576647758,-0.251885920763015,1.74613213539123
1680291065145411300,4.07041137695312,0.126187309622764,-0.328401148319244,1.77114272117614
1680291065155422200,4.08042211914062,0.0556934550404548,-0.468969970941543,1.79269742965698
1680291065165412900,4.09041284179687,-0.0256563406437635,-0.606903314590454,1.82369458675384
1680291065175411200,4.1004111328125,-0.113900184631347,-0.710907518863678,1.87511193752288
1680291065185412900,4.11041284179687,-0.197309464216232,-0.75518649816513,1.92714023590087
1680291065195413000,4.1204130859375,-0.27467992901802,-0.782134413719177,1.97293758392333
1680291065205412900,4.13041284179687,-0.326917618513107,-0.801926434040069,1.99847185611724
1680291065215412700,4.14041284179687,-0.367025285959243,-0.783879697322845,2.00255584716796
1680291065225411300,4.15041137695312,-0.376484960317611,-0.596710622310638,1.99529528617858
1680291065235413000,4.1604130859375,-0.379347324371337,-0.396818071603775,1.9747701883316
1680291065245411300,4.17041137695312,-0.378579378128051,-0.322693914175033,1.94283068180084
1680291065255411200,4.1804111328125,-0.382296919822692,-0.310598790645599,1.91057705879211
1680291065265411300,4.19041137695312,-0.390901386737823,-0.315730065107345,1.88809716701507
1680291065275411200,4.2004111328125,-0.409646213054657,-0.304333060979843,1.88364660739898
1680291065285411300,4.21041137695312,-0.429595351219177,-0.312204509973526,1.89558458328247
1680291065295411200,4.2204111328125,-0.445076406002044,-0.265900909900665,1.90382254123687
1680291065305411300,4.23041137695312,-0.446943908929824,-0.302605181932449,1.91600501537323
1680291065315411200,4.2404111328125,-0.445303291082382,-0.389522582292556,1.89322841167449
1680291065325411300,4.25041137695312,-0.436000704765319,-0.432422786951065,1.88078427314758
1680291065335411200,4.2604111328125,-0.428967028856277,-0.501764714717865,1.85397601127624
1680291065345411300,4.27041137695312,-0.41137409210205,-0.56004124879837,1.82432281970977
1680291065355411200,4.2804111328125,-0.400238901376724,-0.63714987039566,1.79507112503051
1680291065365412900,4.29041284179687,-0.390639603137969,-0.683296382427215,1.7725738286972
1680291065375412700,4.30041284179687,-0.389400422573089,-0.726650357246398,1.74843597412109
1680291065385411300,4.31041137695312,-0.384722918272018,-0.792222380638122,1.71380865573883
1680291065395411200,4.3204111328125,-0.377322733402252,-0.87187922000885,1.67356133460998
1680291065405414400,4.33041430664062,-0.372924506664276,-1.03485810756683,1.61530220508575
1680291065415412700,4.34041284179687,-0.367863059043884,-1.2022875547409,1.55117881298065
1680291065425411300,4.35041137695312,-0.362941205501556,-1.27988481521606,1.49471747875213
1680291065435413000,4.3604130859375,-0.359101504087448,-1.23918378353118,1.46848511695861
1680291065445411300,4.37041137695312,-0.365245044231414,-1.07969558238983,1.46117222309112
1680291065455411200,4.3804111328125,-0.367479085922241,-0.887011229991912,1.46855497360229
1680291065465411300,4.39041137695312,-0.356064617633819,-0.768293917179107,1.46384251117706
1680291065475413000,4.4004130859375,-0.35438910126686,-0.689788997173309,1.43406724929809
1680291065485411300,4.41041137695312,-0.35241687297821,-0.678479313850402,1.38914239406585
1680291065495414500,4.42041455078125,-0.359310925006866,-0.744400382041931,1.31302869319915
1680291065505412900,4.43041284179687,-0.365105420351028,-0.775118172168731,1.22810089588165
1680291065515411200,4.4404111328125,-0.363883703947067,-0.724363982677459,1.15277254581451
1680291065525497300,4.45049731445312,-0.36353462934494,-0.623187243938446,1.08014941215515
1680291065535412700,4.46041284179687,-0.347564876079559,-0.48694685101509,1.02461302280426
1680291065545411300,4.47041137695312,-0.325887888669967,-0.393152862787246,0.971938967704773
1680291065555411200,4.4804111328125,-0.308574199676513,-0.362784147262573,0.917641758918762
1680291065565412900,4.49041284179687,-0.299289047718048,-0.418495059013366,0.872071206569671
1680291065575411200,4.5004111328125,-0.298538565635681,-0.491240382194519,0.816063582897186
1680291065585411300,4.51041137695312,-0.296130001544952,-0.539638340473175,0.763511717319488
1680291065595411200,4.5204111328125,-0.296601265668869,-0.533599495887756,0.71720814704895
1680291065605411300,4.53041137695312,-0.29429742693901,-0.428373605012893,0.681097269058227
1680291065615411200,4.5404111328125,-0.289567589759826,-0.318033903837204,0.648791253566741
1680291065625411300,4.55041137695312,-0.284453749656677,-0.208147972822189,0.621005594730377
1680291065635411200,4.5604111328125,-0.274627566337585,-0.0717679411172866,0.600131452083587
1680291065645411300,4.57041137695312,-0.274540305137634,0.0531627275049686,0.580095052719116
1680291065655411200,4.5804111328125,-0.270526021718978,0.0970053970813751,0.561577141284942
