time,seconds_elapsed,z,y,x
1.68029E+18,1.046213379,-0.912129402,-0.927487791,2.32314229
1.68029E+18,1.056289307,-0.919472635,-0.911714792,2.406350851
1.68029E+18,1.066364502,-0.927067459,-0.971509933,2.581915855
1.68029E+18,1.07644043,-0.939173698,-0.960686028,2.710616827
1.68029E+18,1.086515381,-0.973067224,-1.022023916,2.877648115
1.68029E+18,1.096590576,-1.004538536,-1.141526818,3.016358852
1.68029E+18,1.10666626,-1.028196812,-1.335473895,3.174654007
1.68029E+18,1.116741455,-1.032221913,-1.368638039,3.323715925
1.68029E+18,1.126817627,-1.014803767,-1.235241294,3.47473979
1.68029E+18,1.13689209,-0.972420216,-1.158851385,3.640910149
1.68029E+18,1.146967285,-0.929662347,-1.271463633,3.770637512
1.68029E+18,1.157043457,-0.887898088,-1.47684896,3.906804562
1.68029E+18,1.167118408,-0.852339566,-1.591620564,4.042506695
1.68029E+18,1.177194336,-0.826296151,-1.656700134,4.170171738
1.68029E+18,1.187269287,-0.810154438,-1.808250785,4.309904099
1.68029E+18,1.197345459,-0.799237192,-1.963710427,4.454946041
1.68029E+18,1.20742041,-0.786762655,-2.04304409,4.615520954
1.68029E+18,1.217495361,-0.775192916,-2.133611202,4.801587105
1.68029E+18,1.227571533,-0.764211118,-2.279513836,5.001133919
1.68029E+18,1.23764624,-0.767455041,-2.397548437,5.211025238
1.68029E+18,1.247722168,-0.788690567,-2.50737524,5.418510437
1.68029E+18,1.257797363,-0.843282521,-2.629809856,5.612166405
1.68029E+18,1.267872314,-0.923876166,-2.712209463,5.769390583
1.68029E+18,1.277948486,-1.040567994,-2.644972086,5.909908772
1.68029E+18,1.288023438,-1.165494204,-2.57162714,6.033782005
1.68029E+18,1.298099365,-1.285736084,-2.470796585,6.093151569
1.68029E+18,1.308174316,-1.381008863,-2.305130243,6.171615601
1.68029E+18,1.318249512,-1.460598946,-2.089364767,6.184711933
1.68029E+18,1.328325439,-1.497480273,-1.887350321,6.204696178
1.68029E+18,1.338400146,-1.533001661,-1.814346671,6.190099239
1.68029E+18,1.348476318,-1.53585577,-1.731712699,6.13186264
1.68029E+18,1.358551514,-1.550840855,-1.655556798,6.06550169
1.68029E+18,1.368626465,-1.559709668,-1.676300764,5.975440979
1.68029E+18,1.378702393,-1.57413125,-1.667550564,5.848773003
1.68029E+18,1.388777588,-1.587036133,-1.471614003,5.7393713
1.68029E+18,1.398853271,-1.589451432,-1.111817479,5.612548351
1.68029E+18,1.408928223,-1.567510128,-0.834144354,5.445747852
1.68029E+18,1.419003418,-1.513905168,-0.684929371,5.281275272
1.68029E+18,1.42907959,-1.463516116,-0.509157538,5.057834148
1.68029E+18,1.439154541,-1.417993903,-0.321588814,4.858223438
1.68029E+18,1.449230225,-1.371874928,-0.225800753,4.64645195
1.68029E+18,1.45930542,-1.320507646,-0.227840543,4.403268337
1.68029E+18,1.469380371,-1.277817249,-0.255397886,4.159712315
1.68029E+18,1.479456543,-1.22933042,-0.294692367,3.944755077
1.68029E+18,1.489531494,-1.188749433,-0.061996005,3.665047407
1.68029E+18,1.499607178,-1.149528384,0.205572382,3.42864418
1.68029E+18,1.509682373,-1.087507606,0.28224346,3.162045002
1.68029E+18,1.519757568,-1.064269543,0.442528516,2.873255491
1.68029E+18,1.529833252,-1.043770909,0.615132272,2.621821165
1.68029E+18,1.539908447,-1.047782302,0.498918653,2.354444027
1.68029E+18,1.549984619,-1.112513423,0.225769132,2.088727951
1.68029E+18,1.560059326,-1.181755066,0.037962224,1.868084669
1.68029E+18,1.570134277,-1.247638464,0.106278427,1.623195052
1.68029E+18,1.580210449,-1.307117462,0.236422271,1.447798967
1.68029E+18,1.590285645,-1.381598592,0.451947391,1.26746726
1.68029E+18,1.600361328,-1.438050985,0.731242239,1.106841445
1.68029E+18,1.610436279,-1.525368214,0.842139244,1.006240845
1.68029E+18,1.620512451,-1.591498256,0.981939733,0.854368865
1.68029E+18,1.630587402,-1.655609131,1.036556602,0.757667363
1.68029E+18,1.640662354,-1.71594727,1.084947824,0.657944024
1.68029E+18,1.650738525,-1.749395967,1.177665591,0.523610473
1.68029E+18,1.660813232,-1.785465598,1.192755699,0.468462348
1.68029E+18,1.67088916,-1.773252606,1.266520262,0.331817418
1.68029E+18,1.680964355,-1.742077351,1.319125772,0.202737391
1.68029E+18,1.691039307,-1.688354731,1.201538444,0.064004548
1.68029E+18,1.701115479,-1.619552016,0.891570389,-0.126594812
1.68029E+18,1.71119043,-1.525474548,0.644336641,-0.359065324
1.68029E+18,1.721266357,-1.423989058,0.298103333,-0.570812404
1.68029E+18,1.731341309,-1.299363732,-0.02043388,-0.85269016
1.68029E+18,1.741416504,-1.172399998,-0.134515285,-1.157993197
1.68029E+18,1.751492432,-1.046206951,-0.270723969,-1.415238023
1.68029E+18,1.761567139,-0.91384542,-0.442586094,-1.752722263
1.68029E+18,1.771643311,-0.817915976,-0.50766629,-2.085046053
1.68029E+18,1.781718506,-0.707467437,-0.576086581,-2.422076702
1.68029E+18,1.791793457,-0.629804075,-0.68024683,-2.872418165
1.68029E+18,1.801869385,-0.595140278,-0.696994066,-3.372752905
1.68029E+18,1.811944336,-0.555412829,-0.918925345,-3.929899693
1.68029E+18,1.822020508,-0.564113915,-1.095130444,-4.615813732
1.68029E+18,1.832095215,-0.522504926,-0.937607944,-5.384669304
1.68029E+18,1.842171387,-0.505840361,-0.791688025,-6.158519745
1.68029E+18,1.852246582,-0.565412045,-0.676332414,-7.114891529
1.68029E+18,1.862321289,-0.758981764,-1.057199836,-8.100034714
1.68029E+18,1.872397217,-1.043413877,-1.073584914,-9.426146507
1.68029E+18,1.882472412,-1.375054598,-0.639336586,-11.02975178
1.68029E+18,1.892547852,-1.719737768,0.025505571,-12.93879604
1.68029E+18,1.902623047,-1.97945559,0.340169609,-15.02304554
1.68029E+18,1.912697754,-2.133610487,0.147828922,-17.00211525
1.68029E+18,1.922773682,-1.832607746,-0.491662741,-18.58243942
1.68029E+18,1.932848877,-1.413955927,-1.515892506,-18.60206604
1.68029E+18,1.942925049,0.294053376,-2.562563658,-17.35167885
1.68029E+18,1.952999756,1.277922511,-1.798852205,-19.05780602
1.68029E+18,1.963074707,2.904858351,-0.601484299,-18.28159523
1.68029E+18,1.973150879,4.16291666,0.24170953,-17.30876923
1.68029E+18,1.98322583,5.210933208,-0.584880412,-16.73268318
1.68029E+18,1.993301758,6.257478714,-2.595993519,-15.7676754
1.68029E+18,2.003376953,7.210911751,-5.61073494,-14.9708147
1.68029E+18,2.01345166,8.187531471,-8.065613747,-13.92177963
1.68029E+18,2.023527832,8.784833908,-7.943964005,-12.50343227
1.68029E+18,2.033602783,8.31457901,-5.590058327,-11.18096638
1.68029E+18,2.043678955,7.269106865,-2.684827328,-9.730623245
1.68029E+18,2.053753906,6.06573391,-0.793797433,-8.286224365
1.68029E+18,2.063829102,4.90241766,-0.282013237,-7.021594524
1.68029E+18,2.073904785,3.995513678,-0.044884034,-5.854524136
1.68029E+18,2.083979736,3.404075384,0.050588582,-4.627444744
1.68029E+18,2.094055908,3.044363737,0.072367653,-3.485944033
1.68029E+18,2.104131104,2.88840723,0.159328774,-2.415024757
1.68029E+18,2.114205811,2.785564661,0.036645196,-1.325660467
1.68029E+18,2.124281738,2.672073841,-0.174843535,-0.327661395
1.68029E+18,2.134356934,2.465907335,-0.457443535,0.540479362
1.68029E+18,2.144432617,2.178813457,-0.638420165,1.238063574
1.68029E+18,2.154507813,1.831986189,-0.831958711,1.78852427
1.68029E+18,2.164583008,1.457669854,-0.76047641,2.129910231
1.68029E+18,2.174658936,1.098280191,-0.72746706,2.218113899
1.68029E+18,2.184733887,0.774933875,-1.19898665,2.203968287
1.68029E+18,2.194809814,0.493762136,-1.820513844,2.068294048
1.68029E+18,2.204884766,0.311643451,-2.26863718,1.793756723
1.68029E+18,2.214959961,0.287379652,-2.327111959,1.534412742
1.68029E+18,2.225035889,0.444028974,-1.772903919,1.240959764
1.68029E+18,2.23511084,0.577005625,-0.616943657,0.789551258
1.68029E+18,2.245186768,0.642748117,0.457816333,0.310393542
1.68029E+18,2.255261963,0.682353854,1.024766803,-0.199347213
1.68029E+18,2.265336914,0.773325503,1.325038433,-0.751467764
1.68029E+18,2.275412842,0.750683844,1.47637248,-1.18315208
1.68029E+18,2.285487793,0.724013627,1.554591179,-1.434512019
1.68029E+18,2.295563721,0.64612174,1.526278257,-1.57435596
1.68029E+18,2.305638672,0.526657045,1.355874777,-1.567515016
1.68029E+18,2.315714844,0.397595197,1.139202118,-1.449519753
1.68029E+18,2.325790039,0.263563991,1.170920134,-1.287642002
1.68029E+18,2.335864746,0.149219319,1.413265944,-1.101239324
1.68029E+18,2.345940674,0.04474844,1.486596584,-0.884635568
1.68029E+18,2.356015869,-0.040878311,1.302978754,-0.700355709
1.68029E+18,2.366092041,-0.097147904,1.059594631,-0.51999867
1.68029E+18,2.376166748,-0.137176543,0.929255247,-0.280371726
1.68029E+18,2.386241699,-0.167270556,0.878213286,-0.065944128
1.68029E+18,2.396317871,-0.206442192,0.745919943,0.14903076
1.68029E+18,2.406392822,-0.260731637,0.44864729,0.335269451
1.68029E+18,2.41646875,-0.297800183,0.000246067,0.487146854
1.68029E+18,2.426543945,-0.335219622,-0.472148806,0.578396678
1.68029E+18,2.436618652,-0.390759289,-0.955773234,0.666356623
1.68029E+18,2.446694824,-0.447026819,-1.250712037,0.73998946
1.68029E+18,2.456769775,-0.524606824,-1.316199422,0.808856368
1.68029E+18,2.466845947,-0.612117708,-1.320271492,0.9125067
1.68029E+18,2.476920898,-0.706939518,-1.281593919,1.025975227
1.68029E+18,2.48699585,-0.815932453,-1.126960754,1.121645927
1.68029E+18,2.497071777,-0.928298175,-0.786061227,1.230294347
1.68029E+18,2.507146729,-1.044572234,-0.33678174,1.316774845
1.68029E+18,2.5172229,-1.159686565,0.240741521,1.350273728
1.68029E+18,2.527298096,-1.282290578,0.660167396,1.367540598
1.68029E+18,2.537372559,-1.423741698,0.81612426,1.357049346
1.68029E+18,2.54744873,-1.575092912,0.789976656,1.306936979
1.68029E+18,2.557523926,-1.711233497,0.692327857,1.240965962
1.68029E+18,2.567599609,-1.823974133,0.605037153,1.187527418
1.68029E+18,2.577674805,-1.911057353,0.559583604,1.125677347
1.68029E+18,2.587750977,-1.967414141,0.542384684,1.080116749
1.68029E+18,2.597825928,-2.006630659,0.587956965,1.063912272
1.68029E+18,2.607900879,-2.033602715,0.715820372,1.081552029
1.68029E+18,2.617976807,-2.015454292,0.837373674,1.122595072
1.68029E+18,2.628052002,-1.953288674,0.928224206,1.201711059
1.68029E+18,2.63812793,-1.872358441,1.126408696,1.295883656
1.68029E+18,2.648202637,-1.777166128,1.330867887,1.420521617
1.68029E+18,2.658277832,-1.699765563,1.455097437,1.53798008
1.68029E+18,2.66835376,-1.646599531,1.4326998,1.646164656
1.68029E+18,2.678428955,-1.601901889,1.227892041,1.723320484
1.68029E+18,2.688504883,-1.565152884,0.893074989,1.779376984
1.68029E+18,2.698579834,-1.542187929,0.54625845,1.788793445
1.68029E+18,2.708654785,-1.516435146,0.277834624,1.780112505
1.68029E+18,2.718730957,-1.480547667,0.133443356,1.741353154
1.68029E+18,2.728805664,-1.42337966,0.131546363,1.68708539
1.68029E+18,2.738881836,-1.35696733,0.294448972,1.616112113
1.68029E+18,2.748957031,-1.312731862,0.512300432,1.537986398
1.68029E+18,2.759031738,-1.274285316,0.672039509,1.456387401
1.68029E+18,2.769107666,-1.251572132,0.717702091,1.366886139
1.68029E+18,2.779182861,-1.241965771,0.647875071,1.278608203
1.68029E+18,2.789259033,-1.251227856,0.518753648,1.191113472
1.68029E+18,2.799333984,-1.259938359,0.426557422,1.108865738
1.68029E+18,2.809409912,-1.253132105,0.386995733,1.047867417
1.68029E+18,2.819484863,-1.231946707,0.377717018,1.002407312
1.68029E+18,2.829559814,-1.189861655,0.364506155,0.98076278
1.68029E+18,2.839635742,-1.133399725,0.431695044,0.977280974
1.68029E+18,2.849710938,-1.065222263,0.536616325,0.999227643
1.68029E+18,2.859787109,-1.001212597,0.607169032,1.03826642
1.68029E+18,2.869861816,-0.942362428,0.709412694,1.083531976
1.68029E+18,2.879936768,-0.883800328,0.812260509,1.142545462
1.68029E+18,2.890013184,-0.829768062,0.87240386,1.200927496
1.68029E+18,2.900088135,-0.775825739,0.917515934,1.246005774
1.68029E+18,2.910164063,-0.724484026,0.905475616,1.281414151
1.68029E+18,2.920239014,-0.673653305,0.775194883,1.301648378
1.68029E+18,2.930313965,-0.626042843,0.570911407,1.29702723
1.68029E+18,2.940390137,-0.589495718,0.282779962,1.292461038
1.68029E+18,2.950465332,-0.555107951,-0.001147424,1.288927794
1.68029E+18,2.96054126,-0.516535521,-0.170342579,1.28909564
1.68029E+18,2.970615967,-0.474603385,-0.253445148,1.307647347
1.68029E+18,2.980692139,-0.432347268,-0.255697399,1.324666739
1.68029E+18,2.99076709,-0.385113865,-0.164831325,1.334743381
1.68029E+18,3.000842041,-0.330414146,-0.058029238,1.333649874
1.68029E+18,3.010918213,-0.274469525,0.056312218,1.32106173
1.68029E+18,3.020993164,-0.219924793,0.206283078,1.288902283
1.68029E+18,3.031069092,-0.17631337,0.273148447,1.267697811
1.68029E+18,3.041144043,-0.145478487,0.199423894,1.245599747
1.68029E+18,3.051219238,-0.132723555,0.015470998,1.236697197
