time,seconds_elapsed,z,y,x
1.68029E+18,0.825766113,0.280824572,-1.438120008,1.231174707
1.68029E+18,0.835841309,0.155276507,-1.273482919,1.371181369
1.68029E+18,0.845916992,0.031805247,-1.126540661,1.483810067
1.68029E+18,0.855992188,-0.102497697,-1.136595011,1.577679753
1.68029E+18,0.866067383,-0.243430585,-1.27406764,1.620574594
1.68029E+18,0.876142822,-0.378160447,-1.404401422,1.646952391
1.68029E+18,0.886218018,-0.513180077,-1.525118589,1.648162127
1.68029E+18,0.896294189,-0.631260633,-1.601415753,1.626656294
1.68029E+18,0.906369141,-0.748983085,-1.51467216,1.611337662
1.68029E+18,0.916445068,-0.872538567,-1.269565701,1.581180096
1.68029E+18,0.92652002,-1.001601577,-1.113233924,1.538031578
1.68029E+18,0.936595947,-1.151957512,-1.119723558,1.462014914
1.68029E+18,0.946671143,-1.323408246,-1.120277524,1.380640745
1.68029E+18,0.95674707,-1.483982205,-1.111288548,1.296062946
1.68029E+18,0.966822021,-1.640258193,-1.101348519,1.232486725
1.68029E+18,0.976896973,-1.775657892,-1.02205205,1.18578279
1.68029E+18,0.9869729,-1.883425832,-0.891876221,1.168498039
1.68029E+18,0.997047852,-1.978968859,-0.724542081,1.18134737
1.68029E+18,1.007124023,-2.061760426,-0.482076973,1.218526125
1.68029E+18,1.017199219,-2.13980341,-0.347715437,1.266598821
1.68029E+18,1.027275146,-2.222116709,-0.382184029,1.303568482
1.68029E+18,1.037349854,-2.307262897,-0.527103662,1.339057207
1.68029E+18,1.047426025,-2.390866995,-0.734116256,1.372884035
1.68029E+18,1.057501221,-2.464166164,-0.875196159,1.416620851
1.68029E+18,1.067575928,-2.528514385,-1.00022912,1.480183244
1.68029E+18,1.0776521,-2.580621958,-1.063555837,1.550884604
1.68029E+18,1.087727051,-2.620354176,-1.053163171,1.639226198
1.68029E+18,1.097802734,-2.649489403,-1.017496467,1.726263046
1.68029E+18,1.10787793,-2.661503315,-1.000271082,1.814520955
1.68029E+18,1.117954102,-2.664694071,-0.876555502,1.911250949
1.68029E+18,1.128029053,-2.675071478,-0.839333832,2.004191875
1.68029E+18,1.13810498,-2.694916725,-0.985253215,2.087268114
1.68029E+18,1.148179932,-2.725133419,-1.138781905,2.168808937
1.68029E+18,1.158256104,-2.756740332,-1.272035599,2.262733459
1.68029E+18,1.168331055,-2.782229424,-1.427670002,2.36223793
1.68029E+18,1.178406006,-2.817117214,-1.600520134,2.467028856
1.68029E+18,1.188482178,-2.838586092,-1.707488418,2.574571848
1.68029E+18,1.198556885,-2.866418362,-1.800769329,2.691403866
1.68029E+18,1.208632813,-2.908855915,-1.878042817,2.818566322
1.68029E+18,1.218708008,-2.959120035,-1.977287054,2.946519375
1.68029E+18,1.22878418,-3.01254034,-2.000650644,3.089222431
1.68029E+18,1.238859131,-3.067706347,-1.980631351,3.260796309
1.68029E+18,1.248935059,-3.118931293,-1.889163494,3.445517302
1.68029E+18,1.25901001,-3.181216955,-1.865824938,3.662329674
1.68029E+18,1.269084961,-3.227334499,-1.917181015,3.869679213
1.68029E+18,1.279161133,-3.2657547,-2.065383196,4.064473152
1.68029E+18,1.289236084,-3.289987326,-2.301770687,4.240823269
1.68029E+18,1.299312012,-3.313153028,-2.51135087,4.382273674
1.68029E+18,1.309386963,-3.345615625,-2.571521282,4.509560585
1.68029E+18,1.319462891,-3.397471428,-2.664270639,4.608990192
1.68029E+18,1.329537842,-3.470240355,-2.763781786,4.669211864
1.68029E+18,1.339614014,-3.531320095,-2.726509571,4.702524185
1.68029E+18,1.349689209,-3.5858078,-2.614209652,4.736657619
1.68029E+18,1.359765137,-3.620124817,-2.543707371,4.738528728
1.68029E+18,1.369839844,-3.616011143,-2.447590351,4.7196455
1.68029E+18,1.379915039,-3.601666451,-2.310804605,4.698969364
1.68029E+18,1.389991211,-3.562467813,-2.14053297,4.656358719
1.68029E+18,1.400065918,-3.492821217,-1.996618867,4.593797684
1.68029E+18,1.41014209,-3.419238091,-1.895700216,4.532393456
1.68029E+18,1.420217041,-3.347897291,-1.801607013,4.44536829
1.68029E+18,1.430292969,-3.248606443,-1.767095208,4.356054306
1.68029E+18,1.44036792,-3.13529706,-1.732572198,4.268495083
1.68029E+18,1.450444092,-2.997776985,-1.618006706,4.187941551
1.68029E+18,1.460519287,-2.842743874,-1.462674856,4.105395794
1.68029E+18,1.470594971,-2.675712585,-1.287458062,4.023125172
1.68029E+18,1.480669922,-2.47158885,-1.019720078,3.917047977
1.68029E+18,1.490745117,-2.293641806,-0.935734928,3.794249535
1.68029E+18,1.500821045,-2.113693237,-0.995180964,3.62701273
1.68029E+18,1.510895996,-1.943040252,-1.242640615,3.407165051
1.68029E+18,1.520972168,-1.820849061,-1.737113833,3.18034029
1.68029E+18,1.531046875,-1.756611228,-2.010971069,2.954131365
1.68029E+18,1.541122803,-1.723333955,-1.918035507,2.770252228
1.68029E+18,1.551197998,-1.72364819,-1.674362302,2.611849785
1.68029E+18,1.56127417,-1.722374201,-1.369632721,2.446676493
1.68029E+18,1.571349121,-1.699664593,-1.079703569,2.260652304
1.68029E+18,1.581423828,-1.699327707,-0.878854394,2.067547321
1.68029E+18,1.5915,-1.657891273,-0.492979705,1.858541131
1.68029E+18,1.601574951,-1.60142374,0.017259311,1.663908243
1.68029E+18,1.611650879,-1.557880878,0.47612071,1.477338552
1.68029E+18,1.621726074,-1.51827991,0.883164883,1.2695508
1.68029E+18,1.631802246,-1.540318847,1.10308063,1.082436204
1.68029E+18,1.641876953,-1.541318655,1.353346944,0.800237358
1.68029E+18,1.651952881,-1.594314814,1.132745624,0.541873634
1.68029E+18,1.662028076,-1.586660385,0.86529851,0.18914862
1.68029E+18,1.672104004,-1.506925344,0.999880373,-0.121958673
1.68029E+18,1.682179199,-1.400011897,1.127225518,-0.401861697
1.68029E+18,1.692253906,-1.232372999,1.239860773,-0.75211072
1.68029E+18,1.702329834,-1.06943655,1.125195742,-1.044188023
1.68029E+18,1.712405029,-0.938224852,1.142920613,-1.331528544
1.68029E+18,1.722480957,-0.802720547,1.345952511,-1.599705338
1.68029E+18,1.732555908,-0.711936533,1.380019069,-1.834439993
1.68029E+18,1.74263208,-0.641812325,1.357201576,-2.040881634
1.68029E+18,1.752707031,-0.52551353,1.298686028,-2.251712084
1.68029E+18,1.762782959,-0.444525719,0.954277694,-2.411892176
1.68029E+18,1.77285791,-0.317213893,0.50100702,-2.561002731
1.68029E+18,1.782934082,-0.113195509,-0.004486229,-2.756939888
1.68029E+18,1.793009277,0.049276188,-0.400636554,-2.911660433
1.68029E+18,1.80308374,0.304954827,-0.576437414,-3.192089796
1.68029E+18,1.813159912,0.523180842,-0.746258616,-3.54654789
1.68029E+18,1.823235107,0.797608376,-0.647428691,-4.012796879
1.68029E+18,1.833311035,1.082695603,-0.487989694,-4.487850189
1.68029E+18,1.843385986,1.385890126,-0.191320717,-5.009488583
1.68029E+18,1.853462158,1.835457563,0.277834743,-5.736470699
1.68029E+18,1.863537109,2.291448116,0.184552476,-6.700604439
1.68029E+18,1.873612793,2.933778286,0.631803811,-8.001185417
1.68029E+18,1.883687988,3.936282635,1.869061112,-9.720326424
1.68029E+18,1.89376416,5.0561409,2.389425755,-11.57056808
1.68029E+18,1.903839111,6.413394928,3.20503664,-13.61341572
1.68029E+18,1.913915039,8.714743614,1.96773994,-14.54724598
1.68029E+18,1.92398999,8.715003014,0.128316417,-15.78763294
1.68029E+18,1.934064941,9.518823624,4.77644825,-15.58078575
1.68029E+18,1.944140869,10.24423122,7.066363811,-16.62688065
1.68029E+18,1.954216064,10.4990778,7.321776867,-16.84679985
1.68029E+18,1.964292236,10.32788181,5.718824863,-16.86427498
1.68029E+18,1.974366943,10.0707159,2.427108526,-16.17339706
1.68029E+18,1.984442871,10.32522869,-2.814296246,-15.5532074
1.68029E+18,1.994518066,10.70546532,-8.674477577,-14.35670376
1.68029E+18,2.004593994,11.08227825,-11.87572384,-12.28017902
1.68029E+18,2.014669189,10.95799637,-12.04036045,-9.868907928
1.68029E+18,2.024743896,10.41461277,-9.330061913,-7.327642918
1.68029E+18,2.034819824,9.296663284,-5.455512524,-4.999461651
1.68029E+18,2.04489502,7.926699638,-2.760951042,-3.201401949
1.68029E+18,2.054970947,6.711792469,-0.781300187,-1.808015943
1.68029E+18,2.065045898,5.495357037,0.99938488,-0.49646455
1.68029E+18,2.07512207,4.422129631,1.954178691,0.586528957
1.68029E+18,2.085197021,3.460067749,1.146841764,1.354092002
1.68029E+18,2.095271973,2.671156406,-0.115877017,1.848345637
1.68029E+18,2.1053479,2.085047245,-0.803987801,2.26299119
1.68029E+18,2.115423096,1.633882999,-1.105085611,2.548066616
1.68029E+18,2.125499023,1.351428986,-1.409771442,2.684728622
1.68029E+18,2.13557373,1.116224885,-1.558534145,2.672389984
1.68029E+18,2.145649902,0.958130598,-1.454842687,2.667692423
1.68029E+18,2.155725098,0.813796282,-1.029549122,2.676247597
1.68029E+18,2.165801025,0.734378159,-0.568555772,2.585060596
1.68029E+18,2.175875977,0.674574554,-0.687921524,2.326029301
1.68029E+18,2.185952148,0.620597601,-1.070706725,1.962684631
1.68029E+18,2.1960271,0.568094432,-1.335052252,1.607343554
1.68029E+18,2.206102051,0.520587921,-1.398434162,1.280402422
1.68029E+18,2.216177979,0.487027556,-1.376058102,0.982931018
1.68029E+18,2.226253174,0.434536099,-1.25224936,0.756348252
1.68029E+18,2.236329102,0.38483122,-1.011182785,0.585010469
1.68029E+18,2.246403809,0.333029538,-0.607428133,0.462670475
1.68029E+18,2.25647998,0.294945091,0.025029052,0.388893455
1.68029E+18,2.266554932,0.267631978,0.84681344,0.38108775
1.68029E+18,2.276630859,0.254704416,1.42772615,0.358505398
1.68029E+18,2.286706055,0.252310216,1.577620506,0.268194675
1.68029E+18,2.296780762,0.227327332,1.4482342,0.180910349
1.68029E+18,2.306856934,0.193045795,1.247117043,0.130765423
1.68029E+18,2.316931885,0.120292462,0.865461767,0.109522521
1.68029E+18,2.327008057,0.040207744,0.349594951,0.076578684
1.68029E+18,2.337083008,-0.060169615,-0.137697563,0.072159052
1.68029E+18,2.347158936,-0.161474392,-0.488765568,0.10312549
1.68029E+18,2.357233887,-0.24842307,-0.607804894,0.144331306
1.68029E+18,2.367310059,-0.305494606,-0.498742312,0.198699474
1.68029E+18,2.37738501,-0.359779954,-0.350675642,0.277651995
1.68029E+18,2.387460205,-0.388452083,-0.152419016,0.350737393
1.68029E+18,2.397536133,-0.412544996,0.088495508,0.425333887
1.68029E+18,2.40761084,-0.438457847,0.285567552,0.476874292
1.68029E+18,2.417687012,-0.48983252,0.352089882,0.510953486
1.68029E+18,2.427761963,-0.542501569,0.307535738,0.500238776
1.68029E+18,2.437837891,-0.597857058,0.239889979,0.474132746
1.68029E+18,2.447913086,-0.636471033,0.270762414,0.450513452
1.68029E+18,2.457989014,-0.66784507,0.428843796,0.473535329
1.68029E+18,2.468063721,-0.69944936,0.664503157,0.507179618
1.68029E+18,2.478138916,-0.726638317,0.933626413,0.555836082
1.68029E+18,2.488215088,-0.757619381,1.121373653,0.605630279
1.68029E+18,2.498290039,-0.793830216,1.142020226,0.63593328
1.68029E+18,2.508365967,-0.831650019,1.015434027,0.617542267
1.68029E+18,2.518440918,-0.866824567,0.873483062,0.595455945
1.68029E+18,2.52851709,-0.901824594,0.776010573,0.578343809
1.68029E+18,2.538591797,-0.924780726,0.760107696,0.576808214
1.68029E+18,2.548667969,-0.937031031,0.794875264,0.590466022
1.68029E+18,2.558743164,-0.953894138,0.862877071,0.613637209
1.68029E+18,2.568817871,-0.967214227,0.979152262,0.654714584
1.68029E+18,2.578893799,-0.987804234,1.02327323,0.69731015
1.68029E+18,2.588968994,-1.018538713,1.000147104,0.722797692
1.68029E+18,2.599045166,-1.06324029,0.91291374,0.751036048
1.68029E+18,2.609120117,-1.102900624,0.874543428,0.798984349
1.68029E+18,2.619196045,-1.145300984,0.893709958,0.865793645
1.68029E+18,2.629270996,-1.173741102,0.944289744,0.936469138
1.68029E+18,2.639346924,-1.19755888,1.003920436,1.005015731
1.68029E+18,2.649421875,-1.208280444,1.157217383,1.06887114
1.68029E+18,2.65949707,-1.217999458,1.364926577,1.125325918
1.68029E+18,2.669572998,-1.225823045,1.536667943,1.155170321
1.68029E+18,2.679647949,-1.257941127,1.541712046,1.168381691
1.68029E+18,2.689723877,-1.304090738,1.367745876,1.144706726
1.68029E+18,2.699798828,-1.343435407,1.172937155,1.114971757
1.68029E+18,2.709875,-1.382878423,1.041420341,1.096818686
1.68029E+18,2.719950195,-1.418630123,0.971355736,1.099045634
1.68029E+18,2.730026123,-1.440933108,0.926197827,1.102488518
1.68029E+18,2.74010083,-1.451943874,0.898558378,1.103757262
1.68029E+18,2.750176025,-1.445931792,0.865009189,1.110561371
1.68029E+18,2.760251953,-1.432776093,0.898872674,1.119415998
1.68029E+18,2.770326904,-1.404340982,0.957943439,1.117537141
1.68029E+18,2.780403076,-1.369805217,0.992331803,1.100709081
1.68029E+18,2.790478027,-1.331117153,1.020877123,1.075043917
1.68029E+18,2.800553955,-1.300526738,0.992216587,1.037724972
1.68029E+18,2.810628906,-1.281677604,0.88032496,0.985160649
1.68029E+18,2.820705078,-1.267762542,0.698143721,0.940700531
1.68029E+18,2.830780029,-1.259176135,0.44241178,0.903399765
