time,seconds_elapsed,z,y,x
1680291145555411200,2.5044111328125,-0.0887325406074523,1.42417120933532,0.55141931772232
1680291145565411300,2.51441137695312,-0.0912283584475517,1.10526466369628,0.722985208034515
1680291145575411200,2.5244111328125,-0.115418620407581,0.688986182212829,0.885929107666015
1680291145585412900,2.53441284179687,-0.160011783242225,0.255062401294708,1.04009401798248
1680291145595411200,2.5444111328125,-0.212842896580696,-0.0758345574140548,1.1630699634552
1680291145605411300,2.55441137695312,-0.255970001220703,-0.342625588178634,1.26993644237518
1680291145615411200,2.5644111328125,-0.292080849409103,-0.46434485912323,1.35493397712707
1680291145625411300,2.57441137695312,-0.322083055973053,-0.482548624277114,1.42226874828338
1680291145635413000,2.5844130859375,-0.341176956892013,-0.402944177389144,1.4674379825592
1680291145645411300,2.59441137695312,-0.35791465640068,-0.295868217945098,1.50251901149749
1680291145655411200,2.6044111328125,-0.363604456186294,-0.211481541395187,1.52564465999603
1680291145665411300,2.61441137695312,-0.37339574098587,-0.170274317264556,1.52676165103912
1680291145675411200,2.6244111328125,-0.375926464796066,-0.137619212269783,1.52524328231811
1680291145685411300,2.63441137695312,-0.371091902256011,-0.0950157269835472,1.51616752147674
1680291145695411200,2.6444111328125,-0.361963838338851,0.00375245790928602,1.50920367240905
1680291145705411300,2.65441137695312,-0.339902877807617,0.117582827806472,1.51121079921722
1680291145715411200,2.6644111328125,-0.318225890398025,0.291103452444076,1.52435314655303
1680291145725411300,2.67441137695312,-0.298922538757324,0.476806491613388,1.55690348148345
1680291145735411200,2.6844111328125,-0.281573981046676,0.64100706577301,1.6041669845581
1680291145745412900,2.69441284179687,-0.274714827537536,0.645632207393646,1.67576038837432
1680291145755411200,2.7044111328125,-0.268937796354293,0.576709151268005,1.77081108093261
1680291145765411300,2.71441137695312,-0.281678676605224,0.442755132913589,1.87476289272308
1680291145775411200,2.7244111328125,-0.289619922637939,0.293826192617416,1.9841251373291
1680291145785411300,2.73441137695312,-0.306497275829315,0.12041026353836,2.11188340187072
1680291145795411200,2.7444111328125,-0.319290518760681,0.00258308718912303,2.25318503379821
1680291145805411300,2.75441137695312,-0.332153618335723,0.0230557993054389,2.39398074150085
1680291145815412700,2.76441284179687,-0.333078622817993,0.135001212358474,2.53840684890747
1680291145825411300,2.77441137695312,-0.32180380821228,0.308975636959075,2.68269324302673
1680291145835411200,2.7844111328125,-0.324823230504989,0.399715304374694,2.82509469985961
1680291145845411300,2.79441137695312,-0.322659015655517,0.473438024520874,2.96159672737121
1680291145855411200,2.8044111328125,-0.351701289415359,0.493648916482925,3.08179759979248
1680291145865411300,2.81441137695312,-0.373587727546691,0.380324691534042,3.21795082092285
1680291145875411200,2.8244111328125,-0.416138857603073,0.300126820802688,3.33054208755493
1680291145885417500,2.83441748046875,-0.449806243181228,0.253264725208282,3.430584192276
1680291145895411200,2.8444111328125,-0.457834780216217,0.296653598546981,3.50181102752685
1680291145905411300,2.85441137695312,-0.434202998876571,0.523668587207794,3.55108189582824
1680291145915413000,2.8644130859375,-0.407447099685668,0.683052062988281,3.6226053237915
1680291145925412900,2.87441284179687,-0.415475636720657,0.822905302047729,3.73008275032043
1680291145935411200,2.8844111328125,-0.489268153905868,0.683715283870697,3.90578508377075
1680291145945411300,2.89441137695312,-0.665930390357971,0.299830108880996,4.18755102157592
1680291145955413000,2.9044130859375,-0.887796640396118,-0.132208690047264,4.50256538391113
1680291145965411300,2.91441137695312,-1.17033052444458,-0.582556009292602,4.88597917556762
1680291145975411200,2.9244111328125,-1.44806480407714,-0.889158010482788,5.26808452606201
1680291145985411300,2.93441137695312,-1.7295514345169,-0.962252378463745,5.64903736114501
1680291145995411200,2.9444111328125,-1.96480441093444,-0.871111273765564,5.97679281234741
1680291146005411300,2.95441137695312,-2.18605971336364,-0.680591166019439,6.29938173294067
1680291146015411200,2.9644111328125,-2.39677333831787,-0.503300607204437,6.55508995056152
1680291146025411300,2.97441137695312,-2.60935449600219,-0.300266444683074,6.78596210479736
1680291146035413000,2.9844130859375,-2.8052327632904,-0.166452050209045,6.97377729415893
1680291146045411300,2.99441137695312,-2.99674773216247,-0.0603534840047359,7.14740228652954
1680291146055411200,3.0044111328125,-3.17154240608215,-0.020542524755001,7.31167268753051
1680291146065411300,3.01441137695312,-3.36269092559814,-0.244991868734359,7.48500156402587
1680291146075416000,3.024416015625,-3.53841066360473,-0.354755610227584,7.63394784927368
1680291146085411300,3.03441137695312,-3.6689612865448,-0.151442214846611,7.76891422271728
1680291146095411200,3.0444111328125,-3.73119974136352,0.265586763620376,7.89520645141601
1680291146105411300,3.05441137695312,-3.73261356353759,0.788452506065368,7.99718570709228
1680291146115411200,3.0644111328125,-3.67899703979492,1.11605083942413,8.11979484558105
1680291146125411300,3.07441137695312,-3.58827471733093,1.13120019435882,8.24353885650634
1680291146135412700,3.08441284179687,-3.50655841827392,0.971293151378631,8.34087657928466
1680291146145411300,3.09441137695312,-3.40079140663146,0.732881188392639,8.42400646209716
1680291146155411200,3.1044111328125,-3.26119995117187,0.715776979923248,8.45667839050293
1680291146165411300,3.11441137695312,-3.10396337509155,0.691935777664184,8.42925930023193
1680291146175411200,3.1244111328125,-2.93082666397094,0.40360739827156,8.38611507415771
1680291146185411300,3.13441137695312,-2.76852846145629,-0.0858003869652748,8.26642036437988
1680291146195413000,3.1444130859375,-2.66082429885864,-0.478708893060684,8.08965301513671
1680291146205416000,3.154416015625,-2.55493521690368,-0.712722659111023,7.86902618408203
1680291146215411200,3.1644111328125,-2.48751306533813,-0.804352462291717,7.61762905120849
1680291146225411300,3.17441137695312,-2.4408254623413,-0.753842592239379,7.36080408096313
1680291146235411200,3.1844111328125,-2.40246319770813,-0.609277009963989,7.08554792404174
1680291146245411300,3.19441137695312,-2.38659811019897,-0.506861090660095,6.75808954238891
1680291146255411200,3.2044111328125,-2.37165808677673,-0.548330068588256,6.4187273979187
1680291146265411300,3.21441137695312,-2.39419031143188,-0.544926702976226,6.01367139816284
1680291146275413000,3.2244130859375,-2.4178569316864,-0.502881705760955,5.59405946731567
1680291146285411300,3.23441137695312,-2.43930697441101,-0.46598544716835,5.12425184249877
1680291146295412700,3.24441284179687,-2.46552181243896,-0.308539301156997,4.67198467254638
1680291146305411300,3.25441137695312,-2.46293878555297,-0.0689579620957374,4.20732545852661
1680291146315413000,3.2644130859375,-2.40832757949829,0.326882719993591,3.769788980484
1680291146325411300,3.27441137695312,-2.32266664505004,0.821823179721832,3.32270550727844
1680291146335411200,3.2844111328125,-2.23789596557617,1.28838455677032,2.91651487350463
1680291146345419000,3.2944189453125,-2.12511277198791,1.62388920783996,2.48861265182495
1680291146355413000,3.3044130859375,-2.00231146812438,1.79695606231689,2.06969857215881
1680291146365412900,3.31441284179687,-1.85586094856262,1.78131794929504,1.64139485359191
1680291146375412700,3.32441284179687,-1.73202979564666,1.59517860412597,1.22438335418701
1680291146385411300,3.33441137695312,-1.58699297904968,1.38589608669281,0.77513563632965
1680291146395411200,3.3444111328125,-1.42448532581329,1.29302716255187,0.305572241544723
1680291146405411300,3.35441137695312,-1.24623489379882,1.39882898330688,-0.218899190425872
1680291146415411200,3.3644111328125,-1.01513588428497,1.63179552555084,-0.750491559505462
1680291146425411300,3.37441137695312,-0.718255341053009,1.99409103393554,-1.37001359462738
1680291146435420700,3.38442065429687,-0.342538326978683,2.12495589256286,-1.92656421661376
1680291146445411300,3.39441137695312,0.057281706482172,2.1341712474823,-2.5131869316101
1680291146455411200,3.4044111328125,0.480140089988708,2.07032704353332,-2.99325704574584
1680291146465411300,3.41441137695312,1.01972603797912,2.13631796836853,-3.66534852981567
1680291146475413000,3.4244130859375,1.57432186603546,2.08730912208557,-4.34775495529174
1680291146485411300,3.43441137695312,2.25147461891174,1.85418546199798,-5.53742361068725
1680291146495411200,3.4444111328125,2.98529839515686,0.821945369243621,-6.84313917160034
1680291146505411300,3.45441137695312,3.79834246635437,0.0410850495100021,-8.68805694580078
1680291146515411200,3.4644111328125,4.60454511642456,-0.181723684072494,-10.6396493911743
1680291146525411300,3.47441137695312,5.34786319732666,0.111701071262359,-12.8363552093505
1680291146535411200,3.4844111328125,5.86819839477539,0.819013178348541,-14.9455337524414
1680291146545411300,3.49441137695312,6.1491961479187,1.82303130626678,-16.9048233032226
1680291146555411200,3.5044111328125,6.03327178955078,2.7184898853302,-18.2654819488525
1680291146565412900,3.51441284179687,5.35608386993408,2.7964015007019,-17.9826850891113
1680291146575412700,3.52441284179687,5.1536955833435,1.10934877395629,-19.2842998504638
1680291146585411300,3.53441137695312,4.81789398193359,5.40982246398925,-16.8138046264648
1680291146595411200,3.5444111328125,3.45590901374816,4.12236309051513,-16.9246501922607
1680291146605411300,3.55441137695312,2.9143681526184,1.58069229125976,-16.437213897705
1680291146615416000,3.564416015625,2.81642031669616,-1.85957849025726,-15.9104213714599
1680291146625414400,3.57441430664062,3.06263399124145,-3.78574132919311,-15.0505504608154
1680291146635411200,3.5844111328125,3.79722547531127,-3.87538146972656,-14.5742845535278
1680291146645411300,3.59441137695312,3.97704672813415,-2.32544183731079,-13.6717224121093
1680291146655411200,3.6044111328125,3.83916592597961,-0.244084298610687,-12.984935760498
1680291146665411300,3.61441137695312,3.14002180099487,1.7330595254898,-12.1337728500366
1680291146675413000,3.6244130859375,2.30514359474182,3.05530357360839,-11.198974609375
1680291146685412900,3.63441284179687,1.42022681236267,3.17937898635864,-10.2143297195434
1680291146695412700,3.64441284179687,0.77469927072525,2.46505069732666,-9.24408435821533
1680291146705422300,3.65442236328125,0.299550861120224,1.32285487651824,-8.28760910034179
1680291146715413000,3.6644130859375,0.0571071729063987,0.0495673492550849,-7.42321681976318
1680291146725411300,3.67441137695312,-0.0176801849156618,-0.691447079181671,-6.51035737991333
1680291146735411200,3.6844111328125,-0.0210486706346273,-0.96656334400177,-5.70628404617309
1680291146745411300,3.69441137695312,0.0360410474240779,-1.03627181053161,-4.92325973510742
1680291146755411200,3.7044111328125,0.139888137578964,-1.02213466167449,-4.30612850189209
1680291146765411300,3.71441137695312,0.313094615936279,-1.07034063339233,-3.89625549316406
1680291146775411200,3.7244111328125,0.518100976943969,-0.976459324359893,-3.64676070213317
1680291146785412900,3.73441284179687,0.730664610862731,-0.667396426200866,-3.54136037826538
1680291146795413000,3.7444130859375,0.894306719303131,-0.296321988105773,-3.45137119293212
1680291146805419000,3.7544189453125,0.9846972823143,0.132330864667892,-3.33663320541381
1680291146815411200,3.7644111328125,0.987559676170349,0.387986689805984,-3.17770361900329
1680291146825411300,3.77441137695312,0.934920489788055,0.495865494012832,-2.98306441307067
1680291146835413000,3.7844130859375,0.886801779270172,0.220592156052589,-2.8134708404541
1680291146845411300,3.79441137695312,0.860133171081543,-0.246143788099288,-2.68764996528625
1680291146855411200,3.8044111328125,0.903644204139709,-0.559988915920257,-2.61352586746215
1680291146865412900,3.81441284179687,0.970595061779022,-0.750002861022949,-2.57214403152465
1680291146875413000,3.8244130859375,1.03819167613983,-0.630569994449615,-2.48908376693725
1680291146885411300,3.83441137695312,1.07395339012146,-0.242129519581794,-2.38122248649597
1680291146895416000,3.844416015625,1.06686735153198,0.191811680793762,-2.20593905448913
1680291146905411300,3.85441137695312,0.997665107250213,0.493928164243698,-1.96976113319396
1680291146915413000,3.8644130859375,0.890763700008392,0.547492325305938,-1.70379042625427
1680291146925411300,3.87441137695312,0.774751663208007,0.37079519033432,-1.41134309768676
1680291146935412700,3.88441284179687,0.689649403095245,0.0372976846992969,-1.14388883113861
1680291146945411300,3.89441137695312,0.64746481180191,-0.338332086801528,-0.877569019794464
1680291146955411200,3.9044111328125,0.652910232543945,-0.598630487918853,-0.66050237417221
1680291146965411300,3.91441137695312,0.696002423763275,-0.705514430999755,-0.437327146530151
1680291146975411200,3.9244111328125,0.747332513332366,-0.661217987537384,-0.236701548099517
1680291146985411300,3.93441137695312,0.785712301731109,-0.54541540145874,-0.0144513258710503
1680291146995411200,3.9444111328125,0.801088690757751,-0.459841907024383,0.215129286050796
1680291147005411300,3.95441137695312,0.789394974708557,-0.506040751934051,0.433103442192077
1680291147015411200,3.9644111328125,0.76030033826828,-0.684465765953064,0.627812385559082
1680291147025414400,3.97441430664062,0.723491311073303,-0.819275021553039,0.784036815166473
1680291147035411200,3.9844111328125,0.701273262500762,-0.835297107696533,0.899123787879943
1680291147045411300,3.99441137695312,0.686856865882873,-0.766356647014617,1.00515258312225
1680291147055412700,4.00441284179687,0.670276224613189,-0.598613023757934,1.09629368782043
1680291147065411300,4.01441137695312,0.654131948947906,-0.345976620912551,1.18403136730194
1680291147075411200,4.0244111328125,0.635526716709137,-0.0763057917356491,1.27543425559997
1680291147085412900,4.03441284179687,0.61390209197998,0.179960891604423,1.35100698471069
1680291147095412700,4.04441284179687,0.585156559944152,0.300458431243896,1.42551505565643
1680291147105411300,4.05441137695312,0.557161450386047,0.282167375087738,1.47975993156433
1680291147115413000,4.0644130859375,0.532342851161956,0.169558733701705,1.50440394878387
1680291147125411300,4.07441137695312,0.521347284317016,0.0537735931575298,1.5091164112091
1680291147135412700,4.08441284179687,0.512899935245513,-0.0477871149778366,1.49740517139434
1680291147145411300,4.09441137695312,0.502899169921875,-0.140394285321235,1.49785900115966
1680291147155411200,4.1044111328125,0.480524033308029,-0.192684352397918,1.50597476959228
1680291147165420800,4.1144208984375,0.444046676158905,-0.229598060250282,1.52421343326568
1680291147175411200,4.1244111328125,0.406207919120788,-0.140848070383071,1.54601263999938
1680291147185412900,4.13441284179687,0.356727838516235,-0.0956614986062049,1.57702720165252
1680291147195413000,4.1444130859375,0.29803243279457,-0.109554313123226,1.62259769439697
1680291147205411300,4.15441137695312,0.235636904835701,-0.166364789009094,1.66975653171539
1680291147215416000,4.164416015625,0.169890344142913,-0.190328150987625,1.71780538558959
1680291147225411300,4.17441137695312,0.10515608638525,-0.223471954464912,1.75939655303955
1680291147235411200,4.1844111328125,0.054105207324028,-0.244642794132232,1.80100524425506
1680291147245411300,4.19441137695312,0.00973893702030181,-0.254469007253646,1.82760405540466
1680291147255416000,4.204416015625,-0.0289550125598907,-0.235654354095458,1.85875821113586
1680291147265411300,4.21441137695312,-0.0575784109532833,-0.198862820863723,1.87464070320129
1680291147275411200,4.2244111328125,-0.0757996514439582,-0.095521867275238,1.87994647026062
1680291147285412900,4.23441284179687,-0.104370690882205,0.00956440437585115,1.87643837928771
1680291147295411200,4.2444111328125,-0.126134946942329,0.118158787488937,1.87624633312225
1680291147305422300,4.25442236328125,-0.155264496803283,0.144303828477859,1.86453521251678
1680291147315411200,4.2644111328125,-0.179856181144714,0.150342658162117,1.85783314704895
1680291147325411300,4.27441137695312,-0.210381984710693,0.180798649787902,1.84298038482666
1680291147335411200,4.2844111328125,-0.236404851078987,0.155753180384635,1.8253002166748
1680291147345414400,4.29441430664062,-0.261677205562591,0.162036374211311,1.80901634693145
1680291147355411200,4.3044111328125,-0.283825427293777,0.175178691744804,1.78018343448638
1680291147365411300,4.31441137695312,-0.29606020450592,0.144495815038681,1.76107215881347
1680291147375411200,4.3244111328125,-0.311017662286758,0.0991870611906051,1.72731745243072
1680291147385412900,4.33441284179687,-0.327214330434799,0.0275936555117368,1.69234108924865
1680291147395419100,4.34441918945312,-0.341508567333221,-0.0468969978392124,1.65719008445739
1680291147405411300,4.35441137695312,-0.344615250825881,-0.10266026854515,1.61336493492126
1680291147415411200,4.3644111328125,-0.335504651069641,-0.0849277228116989,1.56948733329772
1680291147425411300,4.37441137695312,-0.309115260839462,-0.122068330645561,1.52791357040405
1680291147435411200,4.3844111328125,-0.265010803937912,-0.149086028337478,1.4925183057785
1680291147445417500,4.39441748046875,-0.217380762100219,-0.0766548588871955,1.44232261180877
1680291147455412700,4.40441284179687,-0.178459912538528,0.000855211343150585,1.39783418178558
1680291147465411300,4.41441137695312,-0.167987942695617,0.0397935062646865,1.35177493095397
1680291147475411200,4.4244111328125,-0.163502439856529,0.0526914894580841,1.29332387447357
1680291147485412900,4.43441284179687,-0.154618725180625,0.0227590929716825,1.24253475666046
1680291147495411200,4.4444111328125,-0.148614779114723,-0.061016708612442,1.18010437488555
1680291147505411300,4.45441137695312,-0.136781454086303,-0.140987694263458,1.12023961544036
1680291147515411200,4.4644111328125,-0.122434847056865,-0.137723937630653,1.06198048591613
1680291147525412900,4.47441284179687,-0.0975464507937431,-0.0535467006266117,0.996617913246154
1680291147535412700,4.48441284179687,-0.07120943069458,0.0220784153789281,0.941064059734344
