time,seconds_elapsed,z,y,x
1680291214385414400,2.40541430664062,-0.0209439508616924,0.0496197119355201,-0.331525295972824
1680291214395411200,2.4154111328125,-0.0422718748450279,0.0804073214530944,-0.200852483510971
1680291214405411300,2.42541137695312,-0.0634078085422515,0.125803336501121,-0.0811054483056068
1680291214415411200,2.4354111328125,-0.0752760469913482,0.165753915905952,0.034505158662796
1680291214425411300,2.44541137695312,-0.0833220183849334,0.188111588358879,0.151320040225982
1680291214435411200,2.4554111328125,-0.0890292450785636,0.25495770573616,0.269618451595306
1680291214445411300,2.46541137695312,-0.0965690687298774,0.343079358339309,0.392140567302703
1680291214455411200,2.4754111328125,-0.105382978916168,0.415283650159835,0.516582548618316
1680291214465411300,2.48541137695312,-0.118822015821933,0.442702770233154,0.637306988239288
1680291214475411200,2.4954111328125,-0.14491468667984,0.396940231323242,0.742550313472747
1680291214485411300,2.50541137695312,-0.179402396082878,0.282656073570251,0.833010733127594
1680291214495411200,2.5154111328125,-0.227713108062744,0.151128053665161,0.922581017017364
1680291214505411300,2.52541137695312,-0.283999979496002,0.0612959638237953,1.02309453487396
1680291214515411200,2.5354111328125,-0.346779465675354,0.0237539317458868,1.14010143280029
1680291214525411300,2.54541137695312,-0.403921544551849,-0.0284314136952161,1.24504804611206
1680291214535411200,2.5554111328125,-0.459143757820129,-0.0486772321164608,1.36891412734985
1680291214545411300,2.56541137695312,-0.515203714370727,-0.0983667597174644,1.48422801494598
1680291214555411200,2.5754111328125,-0.578000664710998,-0.168511539697647,1.59435832500457
1680291214565411300,2.58541137695312,-0.637115001678466,-0.215059474110603,1.71630442142486
1680291214575411200,2.5954111328125,-0.69645619392395,-0.158004656434059,1.84826874732971
1680291214585411300,2.60541137695312,-0.753353893756866,-0.0407883450388908,1.995574593544
1680291214595411200,2.6154111328125,-0.80712753534317,0.163450077176094,2.16099691390991
1680291214605411300,2.62541137695312,-0.850324392318725,0.351858377456665,2.32291102409362
1680291214615411200,2.6354111328125,-0.901863992214202,0.444552809000015,2.48616909980773
1680291214625411300,2.64541137695312,-0.96541142463684,0.476736694574356,2.64576196670532
1680291214635411200,2.6554111328125,-1.03892469406127,0.550110340118408,2.81790399551391
1680291214645411300,2.66541137695312,-1.13498759269714,0.546497464179992,2.99086594581604
1680291214655411200,2.6754111328125,-1.24703776836395,0.509182333946228,3.18430089950561
1680291214665411300,2.68541137695312,-1.38415086269378,0.396521359682083,3.39080810546875
1680291214675411200,2.6954111328125,-1.53526139259338,0.422352224588394,3.64990234375
1680291214685411300,2.70541137695312,-1.7069319486618,0.525815367698669,3.92943429946899
1680291214695411200,2.7154111328125,-1.87368071079254,0.54925513267517,4.23359298706054
1680291214705412900,2.72541284179687,-2.03512382507324,0.584964573383331,4.54532623291015
1680291214715414500,2.73541455078125,-2.19890546798706,0.520823717117309,4.84772157669067
1680291214725411300,2.74541137695312,-2.36574149131774,0.30642744898796,5.12374544143676
1680291214735411200,2.7554111328125,-2.54362535476684,0.070109874010086,5.40551137924194
1680291214745411300,2.76541137695312,-2.73215579986572,-0.220627069473266,5.65324354171752
1680291214755413000,2.7754130859375,-2.94145584106445,-0.493910729885101,5.90940570831298
1680291214765411300,2.78541137695312,-3.15944743156433,-0.762621641159057,6.13130664825439
1680291214775411200,2.7954111328125,-3.38291931152343,-0.809989869594574,6.36472702026367
1680291214785411300,2.80541137695312,-3.58160758018493,-0.636608839035034,6.60289478302001
1680291214795411200,2.8154111328125,-3.77818393707275,-0.540790259838104,6.82833909988403
1680291214805412900,2.82541284179687,-3.98177671432495,-0.676349997520446,7.01828289031982
1680291214815411200,2.8354111328125,-4.1891918182373,-0.82163119316101,7.19518947601318
1680291214825411300,2.84541137695312,-4.38335943222045,-0.815365493297576,7.40059757232666
1680291214835411200,2.8554111328125,-4.5416259765625,-0.843273282051086,7.61317873001098
1680291214845411300,2.86541137695312,-4.67552757263183,-0.723229527473449,7.84846639633178
1680291214855411200,2.8754111328125,-4.79963779449462,-0.489320516586303,8.11702060699462
1680291214865411300,2.88541137695312,-4.87870121002197,-0.286181628704071,8.37367057800293
1680291214875411200,2.8954111328125,-4.93364429473876,-0.102503187954425,8.62208366394043
1680291214885411300,2.90541137695312,-4.98211193084716,-0.351055532693862,8.81337165832519
1680291214895411200,2.9154111328125,-5.05545091629028,-0.843168556690216,8.93036079406738
1680291214905411300,2.92541137695312,-5.13667869567871,-1.148042678833,9.01787185668945
1680291214915411200,2.9354111328125,-5.16149711608886,-1.06618678569793,9.08356571197509
1680291214925411300,2.94541137695312,-5.12741088867187,-0.942442893981933,9.12007808685302
1680291214935416000,2.955416015625,-5.03256940841674,-0.728395700454711,9.10012912750244
1680291214945411300,2.96541137695312,-4.90638208389282,-0.641478300094604,9.02363109588623
1680291214955411200,2.9754111328125,-4.79190635681152,-0.621529221534729,8.88058471679687
1680291214965411300,2.98541137695312,-4.68985652923584,-0.714677393436431,8.68397331237793
1680291214975411200,2.9954111328125,-4.62199831008911,-1.09248888492584,8.40709400177002
1680291214985411300,3.00541137695312,-4.60754680633544,-1.55370950698852,8.09440040588378
1680291214995411200,3.0154111328125,-4.61255598068237,-1.8441846370697,7.76425409317016
1680291215005411300,3.02541137695312,-4.59407329559326,-2.03194713592529,7.42429876327514
1680291215015411200,3.0354111328125,-4.54944515228271,-2.07214212417602,7.06565141677856
1680291215025411300,3.04541137695312,-4.49820232391357,-1.91577804088592,6.712571144104
1680291215035411200,3.0554111328125,-4.4347071647644,-1.61495316028594,6.35732698440551
1680291215045411300,3.06541137695312,-4.35909938812255,-1.29770469665527,6.00709152221679
1680291215055411200,3.0754111328125,-4.27729606628418,-1.11830222606658,5.61908769607543
1680291215065411300,3.08541137695312,-4.21533679962158,-1.13221251964569,5.19982433319091
1680291215075416000,3.095416015625,-4.17093563079834,-1.35263013839721,4.71539115905761
1680291215085411300,3.10541137695312,-4.1300950050354,-1.50203037261962,4.22090435028076
1680291215095411200,3.1154111328125,-4.05303859710693,-1.40331447124481,3.69657254219055
1680291215105411300,3.12541137695312,-3.97184586524963,-1.07376146316528,3.18918776512146
1680291215115413000,3.1354130859375,-3.86515378952026,-0.502009034156799,2.68669009208679
1680291215125411300,3.14541137695312,-3.73830318450927,0.111735977232456,2.20286726951599
1680291215135411200,3.1554111328125,-3.58406853675842,0.576307713985443,1.72476923465728
1680291215145411300,3.16541137695312,-3.41225838661193,0.911620378494262,1.2472995519638
1680291215155411200,3.1754111328125,-3.20178914070129,1.16574025154113,0.752760529518127
1680291215165411300,3.18541137695312,-2.96568083763122,1.38306868076324,0.297910243272781
1680291215175411200,3.1954111328125,-2.68061637878417,1.68192148208618,-0.148736953735351
1680291215185411300,3.20541137695312,-2.36066246032714,1.92670381069183,-0.547405064105987
1680291215195411200,3.2154111328125,-2.03102207183837,1.91235721111297,-0.92947506904602
1680291215205411300,3.22541137695312,-1.65919721126556,1.81610238552093,-1.30681526660919
1680291215215414500,3.23541455078125,-1.24342489242553,1.51985013484954,-1.70389509201049
1680291215225411300,3.24541137695312,-0.79794704914093,1.04260730743408,-2.12671852111816
1680291215235411200,3.2554111328125,-0.345121413469314,0.430520355701446,-2.55849552154541
1680291215245411300,3.26541137695312,0.145385921001434,-0.0265290047973394,-2.99749827384948
1680291215255420700,3.27542065429687,0.653730511665344,-0.454239398241043,-3.45533299446105
1680291215265411300,3.28541137695312,1.20893716812133,-0.552955210208892,-3.92555952072143
1680291215275411200,3.2954111328125,1.79440784454345,-0.360113769769668,-4.3935694694519
1680291215285411300,3.30541137695312,2.46285152435302,-0.171426236629486,-4.92254400253295
1680291215295411200,3.3154111328125,3.21215629577636,-0.172054558992385,-5.57042789459228
1680291215305414400,3.32541430664062,4.06433057785034,-0.433539777994155,-6.40685939788818
1680291215315411200,3.3354111328125,5.05738830566406,-1.02244877815246,-7.54638481140136
1680291215325411300,3.34541137695312,6.0731348991394,-1.11146056652069,-8.85934352874755
1680291215335411200,3.3554111328125,7.1723256111145,-0.642839670181274,-10.3886880874633
1680291215345411300,3.36541137695312,8.05712032318115,0.644288301467895,-11.9128322601318
1680291215355411200,3.3754111328125,8.76284408569336,2.24707651138305,-13.5626392364501
1680291215365411300,3.38541137695312,9.13384914398193,3.60902667045593,-15.1194734573364
1680291215375411200,3.3954111328125,9.26825714111328,4.67495155334472,-16.5510787963867
1680291215385411300,3.40541137695312,9.11271286010742,5.52578210830688,-17.7113399505615
1680291215395414500,3.41541455078125,8.86054801940918,5.37940120697021,-18.5405979156494
1680291215405411300,3.42541137695312,7.86745548248291,5.13269901275634,-17.865644454956
1680291215415411200,3.4354111328125,6.819420337677,1.99698829650878,-18.135139465332
1680291215425411300,3.44541137695312,8.37653350830078,-1.93014216423034,-19.4830932617187
1680291215435416000,3.455416015625,9.1107759475708,-4.69313812255859,-19.1564025878906
1680291215445411300,3.46541137695312,10.1612548828125,-8.13789463043212,-18.3778972625732
1680291215455412700,3.47541284179687,10.2276821136474,-8.59084224700927,-16.6442108154296
1680291215465412900,3.48541284179687,9.77974319458007,-6.85019016265869,-14.3739204406738
1680291215475411200,3.4954111328125,8.61655044555664,-3.16595745086669,-11.6894302368164
1680291215485411300,3.50541137695312,7.4449462890625,0.308155328035354,-9.82775688171386
1680291215495411200,3.5154111328125,5.95626783370971,3.87253642082214,-8.00950813293457
1680291215505411300,3.52541137695312,4.58178615570068,5.82276725769043,-6.80531787872314
1680291215515411200,3.5354111328125,3.3753969669342,6.07383298873901,-5.61564922332763
1680291215525411300,3.54541137695312,2.42349433898925,4.61979913711547,-4.60058307647705
1680291215535414500,3.55541455078125,1.83676707744598,2.08826899528503,-3.71189641952514
1680291215545411300,3.56541137695312,1.60366082191467,-0.0217293482273817,-2.96843862533569
1680291215555411200,3.5754111328125,1.59439313411712,-1.2948248386383,-2.34418654441833
1680291215565411300,3.58541137695312,1.68415546417236,-1.79360508918762,-1.7626953125
1680291215575417600,3.59541748046875,1.73571252822875,-1.81673061847686,-1.25272750854492
1680291215585411300,3.60541137695312,1.78737425804138,-1.65554952621459,-0.915058672428131
1680291215595411200,3.6154111328125,1.86942219734191,-1.48504829406738,-0.748763680458068
1680291215605411300,3.62541137695312,2.00568008422851,-1.36568522453308,-0.82538366317749
1680291215615411200,3.6354111328125,2.10760712623596,-1.37118303775787,-1.03695249557495
1680291215625411300,3.64541137695312,2.15624952316284,-1.58917462825775,-1.32281994819641
1680291215635413000,3.6554130859375,2.09395885467529,-1.74443912506103,-1.56070828437805
1680291215645411300,3.66541137695312,2.00653529167175,-1.54782783985137,-1.74187350273132
1680291215655412700,3.67541284179687,1.94406986236572,-1.14333033561706,-1.88664853572845
1680291215665416000,3.685416015625,1.91101336479187,-0.365314871072769,-2.02306342124938
1680291215675411200,3.6954111328125,1.8574491739273,0.669560670852661,-2.12874317169189
1680291215685411300,3.70541137695312,1.782923579216,1.56922554969787,-2.24060130119323
1680291215695411200,3.7154111328125,1.64947581291198,2.04992413520813,-2.37841248512268
1680291215705411300,3.72541137695312,1.47455883026123,1.86282479763031,-2.51786422729492
1680291215715416000,3.735416015625,1.28461468219757,1.2547869682312,-2.66386103630065
1680291215725411300,3.74541137695312,1.09447848796844,0.693785846233367,-2.77922749519348
1680291215735411200,3.7554111328125,0.925932049751281,0.169593647122383,-2.8378529548645
1680291215745411300,3.76541137695312,0.772011458873748,-0.0876155272126197,-2.83516526222229
1680291215755411200,3.7754111328125,0.608631193637847,-0.021362829953432,-2.73809003829956
1680291215765411300,3.78541137695312,0.451778471469879,0.164846345782279,-2.57834005355834
1680291215775411200,3.7954111328125,0.291330367326736,0.428024530410766,-2.3610291481018
1680291215785411300,3.80541137695312,0.138823494315147,0.738483726978302,-2.11205792427063
1680291215795411200,3.8154111328125,-0.01284562330693,1.04758155345916,-1.81919157505035
1680291215805411300,3.82541137695312,-0.164357662200927,1.1565773487091,-1.54018330574035
1680291215815411200,3.8354111328125,-0.324840664863586,1.18034875392913,-1.2409291267395
1680291215825411300,3.84541137695312,-0.470261514186859,1.0616488456726,-0.955358326435089
1680291215835411200,3.8554111328125,-0.598613023757934,0.89886200428009,-0.679770827293396
1680291215845411300,3.86541137695312,-0.698794901371002,0.77593845129013,-0.422334760427475
1680291215855411200,3.8754111328125,-0.783199071884155,0.661724150180816,-0.188321024179458
1680291215865411300,3.88541137695312,-0.851703226566314,0.557493090629577,0.0124616511166095
1680291215875411200,3.8954111328125,-0.896523296833038,0.497279196977615,0.194482043385505
1680291215885411300,3.90541137695312,-0.950925171375274,0.444029211997985,0.35564574599266
1680291215895417600,3.91541748046875,-0.986739337444305,0.431585013866424,0.493963092565536
1680291215905411300,3.92541137695312,-1.01560711860656,0.41386991739273,0.610935032367706
1680291215915411200,3.9354111328125,-1.03208303451538,0.381616234779357,0.709406554698944
1680291215925411300,3.94541137695312,-1.04560935497283,0.347390323877334,0.779987633228302
1680291215935411200,3.9554111328125,-1.04053044319152,0.330547899007797,0.835873067378997
1680291215945411300,3.96541137695312,-1.02976167201995,0.349380016326904,0.859906256198883
1680291215955411200,3.9754111328125,-0.985779404640197,0.391041010618209,0.876085460186004
1680291215965411300,3.98541137695312,-0.951780378818512,0.412473648786544,0.868702709674835
1680291215975411200,3.9954111328125,-0.903207898139953,0.392437279224395,0.841074168682098
1680291215985416000,4.005416015625,-0.87051784992218,0.335731536149978,0.797388553619384
1680291215995411200,4.0154111328125,-0.837653338909149,0.195529237389564,0.746058464050293
1680291216005411300,4.02541137695312,-0.817459881305694,0.0142942462116479,0.665005326271057
1680291216015411200,4.0354111328125,-0.805469453334808,-0.138247534632682,0.594354450702667
1680291216025411300,4.04541137695312,-0.788784086704254,-0.246039062738418,0.516460359096527
1680291216035414500,4.05541455078125,-0.767176926136016,-0.2700896859169,0.442161709070205
1680291216045411300,4.06541137695312,-0.735813379287719,-0.237382233142852,0.385229080915451
1680291216055411200,4.0754111328125,-0.695391535758972,-0.133447870612144,0.332432866096496
1680291216065411300,4.08541137695312,-0.650606393814086,0.0484852455556392,0.293110579252243
1680291216075411200,4.0954111328125,-0.618946135044097,0.300266444683074,0.25806438922882
1680291216085411300,4.10541137695312,-0.586709856986999,0.520125567913055,0.234450072050094
1680291216095411200,4.1154111328125,-0.550633907318115,0.662125527858734,0.210765957832336
1680291216105411300,4.12541137695312,-0.523563861846923,0.711116969585418,0.199578404426574
1680291216115411200,4.1354111328125,-0.502846837043762,0.701814353466033,0.181810945272445
1680291216125411300,4.14541137695312,-0.478673994541168,0.638668358325958,0.171146988868713
1680291216135411200,4.1554111328125,-0.463646709918975,0.495603680610656,0.154112577438354
1680291216145411300,4.16541137695312,-0.446559935808181,0.341595828533172,0.133657306432724
1680291216155411200,4.1754111328125,-0.427780210971832,0.23013912141323,0.116919606924057
1680291216165411300,4.18541137695312,-0.403589934110641,0.197344377636909,0.0980700477957725
1680291216175411200,4.1954111328125,-0.372557967901229,0.225322008132934,0.0840899646282196
1680291216185411300,4.20541137695312,-0.347041279077529,0.27644270658493,0.0787318050861358
1680291216195411200,4.2154111328125,-0.31744047999382,0.334282904863357,0.0783303752541542
1680291216205411300,4.22541137695312,-0.303024053573608,0.37526324391365,0.0950506329536438
1680291216215411200,4.2354111328125,-0.285256624221801,0.401338458061218,0.129468530416488
1680291216225411300,4.24541137695312,-0.277734249830245,0.382698357105255,0.161565124988555
1680291216235411200,4.2554111328125,-0.251414686441421,0.322798639535903,0.203121423721313
1680291216245411300,4.26541137695312,-0.230784893035888,0.180885925889015,0.231029227375984
1680291216255411200,4.2754111328125,-0.209491863846778,-0.0655371099710464,0.236998260021209
1680291216265411300,4.28541137695312,-0.193626821041107,-0.278851240873336,0.236020877957344
1680291216275411200,4.2954111328125,-0.1943249553442,-0.446594834327697,0.215879768133163
1680291216285411300,4.30541137695312,-0.175684839487075,-0.529515445232391,0.193539559841156
1680291216295411200,4.3154111328125,-0.160238683223724,-0.514331102371215,0.175824463367462
1680291216305411300,4.32541137695312,-0.125070288777351,-0.374146223068237,0.170710653066635
1680291216315411200,4.3354111328125,-0.0783652812242508,-0.132522851228714,0.167900666594505
1680291216325411300,4.34541137695312,-0.039322268217802,0.14583970606327,0.174515470862388
1680291216335411200,4.3554111328125,0.005846852902323,0.404357880353927,0.180275052785873
1680291216345411300,4.36541137695312,0.0395666137337684,0.576656758785247,0.186785131692886
1680291216355419100,4.37541918945312,0.0790634155273437,0.673679649829864,0.195424512028694
1680291216365411300,4.38541137695312,0.0979129672050476,0.634200274944305,0.203383222222328
