time,seconds_elapsed,z,y,x
1680291224974560300,2.10856030273437,2.01129984855651,0.271799981594085,0.164299994707107
1680291224984568000,2.11856811523437,2.07189989089965,0.237299993634223,0.109699994325637
1680291224994560300,2.12856030273437,2.28799986839294,0.132599994540214,0.0150999994948506
1680291225004560400,2.13856030273437,2.52079987525939,0.0346999987959861,-0.000999999931082129
1680291225014560300,2.14856030273437,2.62479996681213,0.0256999991834163,-0.106299996376037
1680291225024560400,2.15856030273437,2.84529995918273,0.0469000004231929,-0.12109999358654
1680291225034564900,2.16856494140625,2.94260001182556,-0.014699999243021,-0.136600002646446
1680291225044560400,2.17856030273437,2.90049982070922,-0.115199998021125,-0.0747999995946884
1680291225054560300,2.18856030273437,2.87929987907409,-0.095100000500679,-0.0395999997854232
1680291225064560400,2.19856030273437,2.97459983825683,0.0436999984085559,-0.0189999993890523
1680291225074560300,2.20856030273437,3.07329988479614,0.275399982929229,0.00179999996908009
1680291225084560400,2.21856030273437,3.25499987602233,0.384799987077713,0.0242999996989965
1680291225094560300,2.22856030273437,3.30749988555908,0.288399994373321,-9.99999974737875e-05
1680291225104560400,2.23856030273437,3.44019985198974,-0.0995000004768371,0.10759999603033
1680291225114560300,2.24856030273437,3.51039981842041,-0.362299978733062,0.269499987363815
1680291225124560400,2.25856030273437,3.387699842453,-0.0544999986886978,0.403599977493286
1680291225134560300,2.26856030273437,3.54679989814758,0.280299991369247,0.520299971103668
1680291225144560400,2.27856030273437,3.5132999420166,0.568699955940246,0.614300012588501
1680291225154560300,2.28856030273437,3.46420001983642,0.624399960041046,0.737100005149841
1680291225164560400,2.29856030273437,3.44059991836547,0.615799963474273,0.846499979496002
1680291225174571300,2.3085712890625,3.90179991722106,0.520099997520446,1.10309994220733
1680291225184560400,2.31856030273437,4.28189992904663,0.174099996685981,1.11570000648498
1680291225194560300,2.32856030273437,4.71719980239868,-0.031599998474121,1.16429996490478
1680291225204560400,2.33856030273437,4.82439994812011,0.117299996316432,1.11640000343322
1680291225214560300,2.34856030273437,4.99499988555908,0.255199998617172,1.14199995994567
1680291225224560400,2.35856030273437,5.22209978103637,0.270799994468688,1.19809997081756
1680291225234560300,2.36856030273437,5.32690000534057,0.0392000004649162,1.34299993515014
1680291225244560400,2.37856030273437,5.51629972457885,-0.13409999012947,1.47979998588562
1680291225254560300,2.38856030273437,5.73210000991821,0.0447999984025955,1.84439992904663
1680291225264563500,2.3985634765625,5.89369964599609,0.0975999981164932,2.19190001487731
1680291225274560300,2.40856030273437,5.96869993209838,-0.00980000011622905,2.32130002975463
1680291225284560400,2.41856030273437,6.53589963912963,-0.0307999998331069,2.60060000419616
1680291225294560300,2.42856030273437,6.96309995651245,0.0855999961495399,2.82270002365112
1680291225304569600,2.43856958007812,7.58369970321655,-0.0768999978899955,2.83049988746643
1680291225314560300,2.44856030273437,7.78459978103637,-0.440599977970123,2.80999994277954
1680291225324560400,2.45856030273437,7.97759962081909,-1.18019998073577,3.04979991912841
1680291225334560300,2.46856030273437,8.05830001831054,-1.15179991722106,3.05609989166259
1680291225344560400,2.47856030273437,8.66949939727783,-0.910600006580352,3.41249990463256
1680291225354564900,2.48856494140625,8.98689937591552,-1.03929996490478,3.6793999671936
1680291225364560400,2.49856030273437,9.20419979095459,-1.25239992141723,3.99459981918334
1680291225374560300,2.50856030273437,9.41009998321533,-1.48549997806549,4.35799980163574
1680291225384560400,2.51856030273437,9.51449966430664,-2.33599996566772,4.4653000831604
1680291225394560300,2.52856030273437,9.59289932250976,-2.50059986114501,4.53949975967407
1680291225404566500,2.53856640625,9.73759937286377,-2.74519991874694,4.53289985656738
1680291225414560300,2.54856030273437,10.1948995590209,-3.47829985618591,4.32919979095459
1680291225424560400,2.55856030273437,10.471899986267,-3.96039986610412,4.05100011825561
1680291225434560300,2.56856030273437,10.5106000900268,-4.64650011062622,3.61209988594055
1680291225444565000,2.57856494140625,10.3578996658325,-5.2898998260498,3.23499989509582
1680291225454560300,2.58856030273437,10.0656995773315,-5.61489963531494,2.77729988098144
1680291225464560400,2.59856030273437,9.7972993850708,-6.38170003890991,2.4238998889923
1680291225474560300,2.60856030273437,9.49609947204589,-7.26809978485107,2.47879981994628
1680291225484560400,2.61856030273437,8.9621000289917,-7.99319982528686,2.31990003585815
1680291225494560300,2.62856030273437,9.01999950408935,-8.65689945220947,2.2224998474121
1680291225504560400,2.63856030273437,8.33889961242675,-9.04669952392578,2.10179996490478
1680291225514560300,2.64856030273437,7.87019968032836,-9.89359951019287,2.07500004768371
1680291225524560400,2.65856030273437,7.61329984664917,-10.6096000671386,1.85249996185302
1680291225534564900,2.66856494140625,7.3914999961853,-11.3922996520996,1.79269993305206
1680291225544560400,2.67856030273437,7.42229986190795,-12.2203998565673,1.86809992790222
1680291225554560300,2.68856030273437,7.15199995040893,-12.8494997024536,1.9426999092102
1680291225564560400,2.69856030273437,6.86450004577636,-13.8060998916625,2.26769995689392
1680291225574560300,2.70856030273437,6.83290004730224,-14.2739992141723,2.55749988555908
1680291225584568000,2.71856811523437,6.74479961395263,-14.4439992904663,2.52959990501403
1680291225594560300,2.72856030273437,6.55060005187988,-14.3107995986938,2.4206998348236
1680291225604560400,2.73856030273437,5.75549983978271,-14.2272996902465,2.33719992637634
1680291225614560300,2.74856030273437,5.33239984512329,-14.2184000015258,2.30780005455017
1680291225624563500,2.7585634765625,5.2293996810913,-14.1780996322631,2.26359987258911
1680291225634560300,2.76856030273437,5.1845998764038,-14.1872997283935,2.27849984169006
1680291225644560400,2.77856030273437,4.45149993896484,-13.8404998779296,2.67599987983703
1680291225654560300,2.78856030273437,4.17649984359741,-13.909399986267,2.65009999275207
1680291225664560400,2.79856030273437,4.62509965896606,-13.684700012207,2.93209981918334
1680291225674560300,2.80856030273437,4.26189994812011,-13.5010995864868,2.55569982528686
1680291225684560400,2.81856030273437,3.92170000076293,-13.1437997817993,2.48280000686645
1680291225694560300,2.82856030273437,3.79180002212524,-12.863299369812,2.3523998260498
1680291225704560400,2.83856030273437,3.33249998092651,-12.0100994110107,2.13150000572204
1680291225714560300,2.84856030273437,2.94479990005493,-11.1519994735717,1.98729991912841
1680291225724560400,2.85856030273437,2.3341999053955,-10.6715993881225,1.82569992542266
1680291225734560300,2.86856030273437,1.39090001583099,-10.3997001647949,1.71719992160797
1680291225744560400,2.87856030273437,0.914099991321563,-10.0170993804931,1.43869996070861
1680291225754560300,2.88856030273437,0.607400000095367,-9.97900009155273,0.710500001907348
1680291225764563500,2.8985634765625,0.443499982357025,-10.1935997009277,-0.138099998235702
1680291225774560300,2.90856030273437,0.464399993419647,-10.3438997268676,-0.822999954223632
1680291225784560400,2.91856030273437,1.10210001468658,-10.5830993652343,-2.07679986953735
1680291225794560300,2.92856030273437,1.45389997959136,-10.5539999008178,-3.34859991073608
1680291225804560400,2.93856030273437,1.40259993076324,-10.646499633789,-4.32289981842041
1680291225814560300,2.94856030273437,1.24559998512268,-11.0145998001098,-5.28169965744018
1680291225824560400,2.95856030273437,1.23439991474151,-11.5233001708984,-6.2733998298645
1680291225834560300,2.96856030273437,1.91849994659423,-12.3274993896484,-6.35839986801147
1680291225844560400,2.97856030273437,1.6897999048233,-13.9109001159667,-6.20139980316162
1680291225854560300,2.98856030273437,1.11409997940063,-15.6159000396728,-6.08850002288818
1680291225864560400,2.99856030273437,0.0303999986499547,-16.4769992828369,-7.11219978332519
1680291225874560300,3.00856030273437,-1.30970001220703,-18.0937004089355,-8.40749931335449
1680291225884560400,3.01856030273437,-3.57329988479614,-19.8976001739501,-9.85249996185302
1680291225894560300,3.02856030273437,-6.03480005264282,-20.93869972229,-10.329999923706
1680291225904573000,3.03857299804687,-7.95549964904785,-22.6406993865966,-10.2455997467041
1680291225914560300,3.04856030273437,-10.050799369812,-23.3191986083984,-10.4201002120971
1680291225924560400,3.05856030273437,-9.6722993850708,-24.0411987304687,-8.77040004730224
1680291225934560300,3.06856030273437,-9.48120021820068,-25.5221996307373,-6.87199974060058
1680291225944560400,3.07856030273437,-10.4661998748779,-27.3436985015869,-5.84839963912963
1680291225954560300,3.08856030273437,-9.28539943695068,-28.4001998901367,-4.21250009536743
1680291225964560400,3.09856030273437,-6.83780002593994,-30.3432998657226,-2.56270003318786
1680291225974560300,3.10856030273437,-5.39860010147094,-32.3265991210937,-2.75189995765686
1680291225984560400,3.11856030273437,-1.77259993553161,-34.7653999328613,-3.53359985351562
1680291225994571300,3.1285712890625,3.30739998817443,-36.9441986083984,-4.03970003128051
1680291226004560400,3.13856030273437,7.79519987106323,-40.2721977233886,-2.83949995040893
1680291226014560300,3.14856030273437,13.7276992797851,-43.3358993530273,-1.34429991245269
1680291226024560400,3.15856030273437,16.1541996002197,-48.5019989013671,0.751399993896484
1680291226034560300,3.16856030273437,18.0446987152099,-53.1733970642089,3.38730001449584
1680291226044563500,3.1785634765625,15.2833995819091,-58.4925994873046,6.62049961090087
1680291226054560300,3.18856030273437,39.0860977172851,-52.6228981018066,43.0566978454589
1680291226064560400,3.19856030273437,2.68639993667602,-66.1927947998046,23.0399990081787
1680291226074560300,3.20856030273437,13.3473997116088,-66.9406967163086,20.1893997192382
1680291226084571100,3.21857104492187,35.1417999267578,-73.176399230957,35.8008003234863
1680291226094560300,3.22856030273437,35.9520988464355,-71.9635009765625,23.2235984802246
1680291226104560400,3.23856030273437,32.8231010437011,-65.7994995117187,37.8519973754882
1680291226114560300,3.24856030273437,26.0464992523193,-55.4379997253418,25.9811992645263
1680291226124560400,3.25856030273437,28.2677001953125,-47.2808990478515,16.2652988433837
1680291226134560300,3.26856030273437,19.2596988677978,-34.1208000183105,5.68219995498657
1680291226144560400,3.27856030273437,16.0263996124267,-24.2304992675781,-1.6521999835968
1680291226154560300,3.28856030273437,13.3063993453979,-19.1375999450683,-3.83519983291625
1680291226164560400,3.29856030273437,8.45699977874755,-17.5641002655029,2.4763000011444
1680291226174560300,3.30856030273437,7.58059978485107,-14.7133998870849,8.97060012817382
1680291226184565000,3.31856494140625,6.95860004425048,-11.7260999679565,12.8654994964599
1680291226194560300,3.32856030273437,4.94140005111694,-10.2207994461059,13.3172998428344
1680291226204560400,3.33856030273437,4.6282000541687,-10.5809993743896,12.9173994064331
1680291226214560300,3.34856030273437,5.08279991149902,-11.3669996261596,11.7322998046875
1680291226224560400,3.35856030273437,6.51989984512329,-11.8660993576049,11.1468000411987
1680291226234560300,3.36856030273437,7.70509958267211,-11.4689998626708,9.30000019073486
1680291226244560400,3.37856030273437,9.24739933013916,-10.6662998199462,7.6225996017456
1680291226254560300,3.38856030273437,9.65339946746826,-10.5469999313354,6.24309968948364
1680291226264560400,3.39856030273437,9.29749965667724,-9.67420005798339,4.79719972610473
1680291226274560300,3.40856030273437,9.50879955291748,-8.93449974060058,5.31839990615844
1680291226284560400,3.41856030273437,8.88169956207275,-9.8769998550415,5.71399974822998
1680291226294560300,3.42856030273437,9.41940021514892,-10.0037994384765,7.06489992141723
1680291226304560400,3.43856030273437,9.69909954071045,-8.56379985809326,8.28450012207031
1680291226314564900,3.44856494140625,9.08930015563964,-7.36999988555908,7.88479995727539
1680291226324560400,3.45856030273437,8.17490005493164,-6.66599988937377,6.39459991455078
1680291226334560300,3.46856030273437,7.67949962615966,-6.23149967193603,5.97699975967407
1680291226344560400,3.47856030273437,7.7261996269226,-5.78569984436035,5.94739961624145
1680291226354560300,3.48856030273437,8.59299945831298,-4.8241000175476,6.31699991226196
1680291226364565000,3.49856494140625,9.03579998016357,-4.38879966735839,6.59219980239868
1680291226374560300,3.50856030273437,8.50479984283447,-4.20809984207153,5.78189992904663
1680291226384560400,3.51856030273437,7.68809986114501,-3.93999981880188,4.81229972839355
1680291226394560300,3.52856030273437,6.31599998474121,-3.80769991874694,3.82109999656677
1680291226404566500,3.53856640625,5.6680998802185,-2.80979990959167,3.52999997138977
1680291226414560300,3.54856030273437,6.27559995651245,-1.64520001411437,4.5903000831604
1680291226424560400,3.55856030273437,6.73359966278076,-0.644199967384338,5.34069967269897
1680291226434560300,3.56856030273437,6.94399976730346,-0.15770000219345,5.81139993667602
1680291226444560400,3.57856030273437,6.14019966125488,0.167599990963935,5.36789989471435
1680291226454568200,3.58856811523437,5.54059982299804,0.301899999380111,4.74419975280761
1680291226464560400,3.59856030273437,4.93449974060058,0.439099997282028,3.99239993095397
1680291226474560300,3.60856030273437,4.69439983367919,0.433299988508224,3.49580001831054
1680291226484560400,3.61856030273437,4.9277000427246,0.376599997282028,3.25219988822937
1680291226494560300,3.62856030273437,5.14439964294433,0.259999990463256,3.02509999275207
1680291226504569600,3.63856958007812,5.14879989624023,-0.209699988365173,2.85049986839294
1680291226514560300,3.64856030273437,5.13940000534057,-0.629399955272674,2.81889986991882
1680291226524560400,3.65856030273437,4.98079967498779,-0.575699985027313,2.61640000343322
1680291226534560300,3.66856030273437,4.93869972229003,-0.450299978256225,2.43359994888305
1680291226544565000,3.67856494140625,4.68379974365234,-0.123199999332427,2.14479994773864
1680291226554560300,3.68856030273437,4.2930998802185,0.0806999951601028,1.77959990501403
1680291226564560400,3.69856030273437,3.89639997482299,0.045399997383356,1.42309999465942
1680291226574560300,3.70856030273437,3.47469997406005,-0.0129999993368983,1.04489994049072
1680291226584560400,3.71856030273437,3.1275999546051,0.170599997043609,0.828399956226348
1680291226594566700,3.72856665039062,3.04169988632202,0.302199989557266,0.880499958992004
1680291226604560400,3.73856030273437,2.96259999275207,-0.108300000429153,0.964899957180023
1680291226614560300,3.74856030273437,2.76740002632141,-0.525399982929229,0.893499970436096
1680291226624560400,3.75856030273437,2.65249991416931,-0.402799993753433,0.767199993133544
1680291226634560300,3.76856030273437,2.4368999004364,-0.106399998068809,0.44539999961853
1680291226644562000,3.77856201171875,2.282399892807,0.0539999976754188,0.220100000500679
1680291226654560300,3.78856030273437,2.18420004844665,0.145499989390373,0.00469999993219971
1680291226664560400,3.79856030273437,2.24230003356933,0.361200004816055,-0.0885000005364418
1680291226674560300,3.80856030273437,2.20949983596801,0.154599994421005,0.00679999962449073
1680291226684560400,3.81856030273437,1.93169999122619,-0.387199997901916,-0.0867999941110611
1680291226694560300,3.82856030273437,1.6275999546051,-0.45440000295639,-0.259499996900558
1680291226704560400,3.83856030273437,1.41079998016357,-0.336499989032745,-0.399599999189376
1680291226714560300,3.84856030273437,1.2447999715805,-0.372699975967407,-0.608999967575073
1680291226724560400,3.85856030273437,1.06959998607635,-0.125699996948242,-0.657400012016296
1680291226734560300,3.86856030273437,0.935399949550628,0.222699999809265,-0.543999969959259
1680291226744560400,3.87856030273437,0.888300001621246,0.628899991512298,-0.504299998283386
1680291226754560300,3.88856030273437,0.843199968338012,0.812999963760376,-0.34070000052452
1680291226764560400,3.89856030273437,0.653800010681152,0.703199982643127,-0.346199989318847
1680291226774561800,3.90856176757812,0.34809997677803,0.410199999809265,-0.266399979591369
1680291226784560400,3.91856030273437,-0.11659999936819,-0.168999999761581,-0.307599991559982
1680291226794560300,3.92856030273437,-0.601999998092651,-0.671999990940094,-0.397699981927871
1680291226804560400,3.93856030273437,-0.813399970531463,-0.667699992656707,-0.49329999089241
1680291226814560300,3.94856030273437,-0.972599983215332,-0.36829999089241,-0.63809996843338
1680291226824560400,3.95856030273437,-0.870399951934814,-0.0572999976575374,-0.794200003147125
1680291226834560300,3.96856030273437,-0.674799978733062,0.117899999022483,-0.877200007438659
1680291226844560400,3.97856030273437,-0.485799998044967,0.00849999953061342,-0.980499982833862
1680291226854560300,3.98856030273437,-0.264499992132186,-0.208599999547004,-0.932799994945526
1680291226864560400,3.99856030273437,-0.0898000001907348,-0.503799974918365,-0.96529996395111
1680291226874560300,4.00856030273437,0.017799999564886,-0.925499975681304,-0.993200004100799
1680291226884560400,4.01856030273437,-0.0202999990433454,-1.20869994163513,-0.95519995689392
1680291226894560300,4.02856030273437,0.0248999986797571,-1.33990001678466,-0.939300000667572
1680291226904560400,4.03856030273437,0.112199999392032,-1.12249994277954,-0.879700005054473
1680291226914560300,4.04856030273437,-0.04449999704957,-0.551800012588501,-0.983099997043609
1680291226924560400,4.05856030273437,-0.177799999713897,0.181199997663497,-1.26699995994567
1680291226934560300,4.06856030273437,-0.361499994993209,0.607999980449676,-1.47189998626708
1680291226944560400,4.07856030273437,-0.552199959754943,0.713899970054626,-1.55830001831054
1680291226954566700,4.08856665039062,-0.616400003433227,0.571900010108947,-1.5005999803543
