time,seconds_elapsed,z,y,x
1.68029E+18,1.034546143,-4.245595835,3.039661126,0.1310992
1.68029E+18,1.04462207,-4.845690557,3.164670484,0.018804069
1.68029E+18,1.054696777,-5.442163581,3.216070709,0.018450433
1.68029E+18,1.064771973,-6.406855586,3.762545484,0.081420684
1.68029E+18,1.074848145,-7.486190452,4.349219291,0.188745041
1.68029E+18,1.084923096,-8.040007407,4.602767936,0.348412163
1.68029E+18,1.094999023,-7.450000949,4.5812058,0.7633587
1.68029E+18,1.105073975,-6.975028982,4.653522556,0.86051939
1.68029E+18,1.115150146,-7.160435234,4.758582183,0.714430711
1.68029E+18,1.125224854,-6.905957784,4.834406362,0.833831289
1.68029E+18,1.135300049,-6.23061756,5.113268312,0.96310795
1.68029E+18,1.145376221,-6.675652653,5.861134259,0.990162545
1.68029E+18,1.155450928,-7.816144876,6.545003827,0.994491515
1.68029E+18,1.165526855,-7.681965538,7.172911854,1.28089818
1.68029E+18,1.175602051,-6.463416262,7.511534737,1.716433331
1.68029E+18,1.185678223,-5.214767031,7.493444954,1.999318545
1.68029E+18,1.195753174,-4.929820208,7.768279547,2.372256663
1.68029E+18,1.205827881,-5.147646967,7.897417968,2.699593305
1.68029E+18,1.215904053,-5.219166727,7.630970095,3.093361152
1.68029E+18,1.225979004,-4.751849659,7.587173039,3.370047219
1.68029E+18,1.236054932,-3.91789942,7.500536373,3.286024535
1.68029E+18,1.246130127,-2.920132245,6.97692751,2.551796945
1.68029E+18,1.256206055,-2.232821012,6.374435663,1.668775216
1.68029E+18,1.266281006,-1.794866817,5.786060605,1.456488264
1.68029E+18,1.276355957,-2.122644335,5.787991866,1.6394404
1.68029E+18,1.286431885,-2.799102311,5.945687688,2.012325619
1.68029E+18,1.29650708,-3.929937648,6.176963126,2.32495832
1.68029E+18,1.306583252,-4.98840333,6.196122585,2.632485808
1.68029E+18,1.316657715,-5.303856934,6.272718333,3.001829116
1.68029E+18,1.326733887,-5.053481075,6.438632534,3.124846423
1.68029E+18,1.336809082,-4.708782087,6.610941403,3.124993723
1.68029E+18,1.346884277,-3.876642696,6.345242887,2.998084668
1.68029E+18,1.356959961,-3.142966018,6.223520879,2.69360897
1.68029E+18,1.367034912,-2.328255901,6.189154499,2.632597159
1.68029E+18,1.377111084,-1.744417317,6.050843176,2.52834242
1.68029E+18,1.387186035,-1.655101203,6.255290229,2.408931173
1.68029E+18,1.397261963,-2.314396302,6.553544276,2.098213511
1.68029E+18,1.407337158,-2.145513315,6.426815254,1.571601228
1.68029E+18,1.417411865,-0.648491381,5.901075224,1.341579151
1.68029E+18,1.427487793,0.1847662,6.104743109,1.056856639
1.68029E+18,1.437562988,-0.465139723,6.052872636,0.91470077
1.68029E+18,1.44763916,-0.158275668,5.308924155,0.628544571
1.68029E+18,1.457714111,1.196393559,5.362391541,0.706616237
1.68029E+18,1.467790039,1.244564592,5.288015222,0.861500364
1.68029E+18,1.47786499,-0.158435827,6.007065409,0.748911438
1.68029E+18,1.487939941,-1.160623742,6.337558177,0.780567097
1.68029E+18,1.498015869,-0.346330389,6.228090087,0.477518144
1.68029E+18,1.50809082,1.013149453,6.131397307,-0.218244253
1.68029E+18,1.518166992,2.045869869,5.637865017,-0.565124385
1.68029E+18,1.528241943,2.015627875,5.337512536,-0.778020189
1.68029E+18,1.538317627,1.444303321,5.376584317,-0.627572584
1.68029E+18,1.548392822,0.370617858,5.28713727,0.170033984
1.68029E+18,1.558468018,-0.674499682,5.091573782,0.003034253
1.68029E+18,1.568543945,-1.228617081,5.392662176,0.214057615
1.68029E+18,1.578618652,-1.606634402,5.057158886,0.336046384
1.68029E+18,1.588694824,-0.561094252,5.041178058,0.069847443
1.68029E+18,1.598769775,0.967536872,4.983743522,-0.225041877
1.68029E+18,1.608845703,2.233554587,4.313679484,-0.744891315
1.68029E+18,1.618920898,2.980924859,4.790937807,-1.034937799
1.68029E+18,1.628995605,2.878315549,4.708375259,-1.093888804
1.68029E+18,1.639071777,2.566881117,4.88135253,-0.93474724
1.68029E+18,1.649146973,2.436303018,4.913074241,-0.65440835
1.68029E+18,1.6592229,2.044884365,5.103684491,-0.520338317
1.68029E+18,1.669297852,1.424106336,5.314744239,-0.090165607
1.68029E+18,1.679374023,0.634486236,5.434276043,0.156342508
1.68029E+18,1.68944873,0.779292182,5.721785409,0.514241462
1.68029E+18,1.699523682,1.266294193,5.716691301,0.926711233
1.68029E+18,1.709599854,1.447949568,5.435870619,0.987775796
1.68029E+18,1.719675049,2.026896873,5.544225195,0.809257916
1.68029E+18,1.729750977,3.026480157,5.656147108,0.626361893
1.68029E+18,1.739825684,3.470851818,6.121761464,0.567177554
1.68029E+18,1.749901855,2.807103247,6.932136182,1.010045131
1.68029E+18,1.759977051,1.980902599,7.300947867,1.599322325
1.68029E+18,1.770051758,1.725149722,8.016857418,2.344223431
1.68029E+18,1.78012793,1.709343081,8.464037122,3.448883732
1.68029E+18,1.790203125,2.375923661,9.088546738,4.079226292
1.68029E+18,1.800278564,3.383051369,10.86251748,4.896645961
1.68029E+18,1.81035376,3.948209218,12.31474458,5.670297214
1.68029E+18,1.820429932,4.444640152,14.14995627,6.222765093
1.68029E+18,1.830504883,3.976235874,15.32744522,7.616319054
1.68029E+18,1.840580078,4.570686452,16.00901177,8.806881422
1.68029E+18,1.850655762,7.243419807,16.7590726,10.58843751
1.68029E+18,1.860730957,8.775518315,17.92417086,12.74095339
1.68029E+18,1.870806885,9.581243746,19.59237645,14.84714826
1.68029E+18,1.880881836,11.20476089,22.47034947,16.40102956
1.68029E+18,1.890958008,12.35549277,28.13779422,17.52324846
1.68029E+18,1.901032715,15.62676719,34.36635193,17.9297659
1.68029E+18,1.91110791,22.6686193,39.91770127,18.56512833
1.68029E+18,1.921183838,25.2072002,44.08956026,19.178556
1.68029E+18,1.931258789,23.11244677,46.04862044,20.22387754
1.68029E+18,1.941334961,20.27178495,48.47375968,20.70654532
1.68029E+18,1.951410156,16.31873355,52.78771827,17.89494359
1.68029E+18,1.96148584,6.66031246,63.29459276,13.2465356
1.68029E+18,1.971560791,-6.720318893,73.03503747,8.662344356
1.68029E+18,1.981635986,-42.38120852,79.13025404,12.84659053
1.68029E+18,1.991711914,-63.63264281,71.38713466,-8.264236434
1.68029E+18,2.001786865,-26.9098961,93.97528633,-8.799860145
1.68029E+18,2.011862793,-17.71362023,98.0466169,-4.00066392
1.68029E+18,2.021937988,-39.43635919,107.5542162,-12.79348554
1.68029E+18,2.032012939,-33.22781785,96.0730746,-18.120223
1.68029E+18,2.042088867,-24.89832948,82.67099773,-25.78051564
1.68029E+18,2.052164063,-44.759254,62.10121416,-31.02704617
1.68029E+18,2.06223999,-59.47090775,39.73633114,-23.92483166
1.68029E+18,2.072314697,-55.99108059,23.01519869,-12.43228492
1.68029E+18,2.082390869,-37.62797939,5.590480166,-6.21787849
1.68029E+18,2.092466064,-19.68515644,1.86574711,-6.668389968
1.68029E+18,2.102541016,-12.38619771,6.631665627,-6.575530483
1.68029E+18,2.112616943,-11.55914249,4.920334002,-8.904820987
1.68029E+18,2.122691895,-13.39653327,3.126875883,-11.67479833
1.68029E+18,2.132767822,-11.63511163,6.766421888,-11.22983805
1.68029E+18,2.142843018,-7.364857737,8.763940106,-8.240963695
1.68029E+18,2.152918945,-4.820577159,6.069492347,-6.495136511
1.68029E+18,2.162993896,-5.275884055,4.141183859,-5.974060381
1.68029E+18,2.173068848,-6.061270462,5.311417725,-5.924884554
1.68029E+18,2.183144775,-4.428173001,5.650927328,-7.497040348
1.68029E+18,2.193219727,-2.646597628,4.551985259,-10.64339893
1.68029E+18,2.203295898,-2.415169045,6.277106924,-11.84610065
1.68029E+18,2.213371094,-5.83336187,9.770740482,-12.47293725
1.68029E+18,2.223447021,-9.048122373,9.954869554,-12.89342944
1.68029E+18,2.233521729,-5.723043301,6.976434758,-11.31236904
1.68029E+18,2.243596924,-1.688107985,4.739206451,-8.412965106
1.68029E+18,2.253672852,-2.4783506,3.260667683,-6.785501851
1.68029E+18,2.263747803,-4.141145281,2.052528157,-6.105933195
1.68029E+18,2.273823975,-3.969361312,1.708742777,-5.699982743
1.68029E+18,2.283898926,-4.056804617,1.630363652,-5.779607484
1.68029E+18,2.293974854,-6.026364569,2.778027959,-6.333327408
1.68029E+18,2.304049805,-9.671572252,5.078354235,-6.899920842
1.68029E+18,2.314125,-10.71835217,5.882923481,-6.533571748
1.68029E+18,2.324201172,-7.707035682,5.004226922,-5.533420892
1.68029E+18,2.334275635,-3.865394157,4.008527785,-4.033032404
1.68029E+18,2.344351807,-2.35742062,3.23878143,-2.87221957
1.68029E+18,2.354427002,-2.91676306,2.420171383,-2.853315547
1.68029E+18,2.364501953,-4.188015753,1.696656033,-2.877469453
1.68029E+18,2.374577881,-4.137389728,1.188209083,-2.638524211
1.68029E+18,2.384652832,-3.908685017,0.785984958,-2.633824948
1.68029E+18,2.39472876,-3.748161277,0.853631676,-2.701870017
1.68029E+18,2.404803955,-3.383306806,1.656141652,-2.607714647
1.68029E+18,2.414879883,-2.593416657,1.741776447,-2.367688916
1.68029E+18,2.424954834,-1.439724761,1.158661502,-1.832631607
1.68029E+18,2.435029785,-1.038539915,1.01122813,-1.273388974
1.68029E+18,2.445105713,-1.472781227,0.993715854,-0.835441063
1.68029E+18,2.455180908,-2.042431711,0.90747491,-0.130943571
1.68029E+18,2.465256836,-2.367166354,0.74039868,0.334261765
1.68029E+18,2.475332031,-2.265918979,0.609893062,0.675551676
1.68029E+18,2.485407959,-1.997460935,0.54099839,0.779615423
1.68029E+18,2.495482666,-1.762138852,0.696879272,0.777705644
1.68029E+18,2.505557617,-1.161099542,0.854023306,0.737237732
1.68029E+18,2.515633789,-0.128457453,0.773983554,0.630294484
1.68029E+18,2.52570874,0.558289132,0.707454442,0.513545296
1.68029E+18,2.535784912,0.836580003,0.540576365,0.353120487
1.68029E+18,2.545859619,0.798009158,0.416041054,0.364972691
1.68029E+18,2.555935547,0.591522708,0.378248206,0.286173442
1.68029E+18,2.566010742,0.260171278,0.498609447,0.304178323
1.68029E+18,2.576085693,0.427226465,0.361931278,0.317887261
1.68029E+18,2.586161865,0.792687086,0.298913388,0.415361109
1.68029E+18,2.596236816,1.08662327,0.417815662,0.565097058
1.68029E+18,2.606312744,1.28680682,0.404997974,0.675821579
1.68029E+18,2.616387695,1.412589501,0.18292028,0.739051942
1.68029E+18,2.626463867,1.486652516,0.091302904,0.846249457
1.68029E+18,2.636538818,1.183110299,0.139082307,0.863978883
1.68029E+18,2.646613525,0.493778373,0.314678821,0.812699654
1.68029E+18,2.656689697,0.119860305,0.450393113,0.853562702
1.68029E+18,2.666764893,0.304487389,0.251755331,0.960712871
1.68029E+18,2.676840576,0.675119275,0.167977855,1.031017118
1.68029E+18,2.686915771,0.729202163,0.332930517,0.972240081
1.68029E+18,2.696991943,0.725502724,0.287018953,0.811562467
1.68029E+18,2.70706665,0.919299788,0.225269476,0.587535538
1.68029E+18,2.717141602,0.808634012,0.472311223,0.450186631
1.68029E+18,2.727217773,0.481836007,0.841461346,0.306890505
1.68029E+18,2.737292725,-0.179585583,1.166569498,0.257101369
1.68029E+18,2.747368652,-0.386083722,1.175401332,0.363523808
1.68029E+18,2.757443604,-0.299383929,1.133555702,0.484401035
1.68029E+18,2.767519775,-0.180716633,1.062921784,0.576233662
1.68029E+18,2.777594727,-0.152063954,0.831637286,0.639443859
1.68029E+18,2.787669922,-0.311305837,0.527223255,0.752553813
1.68029E+18,2.79774585,-0.48968146,0.468566191,0.816349847
1.68029E+18,2.807820557,-0.655871554,0.657839347,0.778471221
1.68029E+18,2.817896729,-0.945357774,0.82365301,0.74517174
1.68029E+18,2.82797168,-1.124886658,0.770337891,0.469615554
1.68029E+18,2.838046631,-1.068108539,0.950751157,0.222077109
1.68029E+18,2.848122803,-0.780824799,1.214811697,0.025010523
1.68029E+18,2.858197998,-0.182948337,1.114465071,0.04587262
1.68029E+18,2.868273682,0.418619964,1.017714862,0.162347155
1.68029E+18,2.878348633,0.410735933,1.042633468,0.345909168
1.68029E+18,2.888424805,0.36117666,0.856937732,0.480709122
1.68029E+18,2.898499756,0.088088033,0.702030225,0.664500559
1.68029E+18,2.908574707,-0.21367373,0.73615549,0.786531486
1.68029E+18,2.918650635,-0.74362641,0.884958177,0.682241967
1.68029E+18,2.92872583,-1.523181042,1.15346554,0.440009593
1.68029E+18,2.938801758,-1.805661767,1.188950038,0.196359388
1.68029E+18,2.948876709,-1.65924371,1.16361927,0.059396996
1.68029E+18,2.958952881,-1.379577458,1.173626212,-0.09865334
1.68029E+18,2.969028076,-0.676242142,1.234963235,-0.310150237
1.68029E+18,2.979102783,0.407251014,1.222397038,-0.237661449
1.68029E+18,2.989178711,1.298508948,0.915002529,0.002185235
1.68029E+18,2.999253906,1.472094998,0.479532296,0.107329727
1.68029E+18,3.009329834,1.051378354,0.364626435,0.001290734
1.68029E+18,3.019404785,0.231234521,0.380748718,-0.131347658
1.68029E+18,3.029480713,-0.602954203,0.458959062,-0.220807528
1.68029E+18,3.039555664,-0.893429433,0.322718335,-0.22027996
