time,seconds_elapsed,z,y,x
1.68029E+18,0.818379639,-0.255564004,0.096056722,-0.090647981
1.68029E+18,0.828454834,-0.254489899,0.117818691,-0.087892033
1.68029E+18,0.838531006,-0.249587566,0.20071277,-0.080185913
1.68029E+18,0.848605957,-0.24713856,0.238642409,-0.070615873
1.68029E+18,0.858681885,-0.251113057,0.185637236,-0.02969534
1.68029E+18,0.868756836,-0.249340817,0.091562778,0.031796295
1.68029E+18,0.878832764,-0.262391359,0.040217828,0.125370979
1.68029E+18,0.888907959,-0.278446943,0.026528776,0.244810715
1.68029E+18,0.89898291,-0.319521129,-0.124937706,0.417246938
1.68029E+18,0.909058838,-0.357916683,-0.450962245,0.594578266
1.68029E+18,0.919133789,-0.40482372,-0.876343668,0.833585262
1.68029E+18,0.929209717,-0.450493604,-1.185450673,1.091729283
1.68029E+18,0.939284668,-0.487618327,-1.264739037,1.360542059
1.68029E+18,0.94936084,-0.512347639,-1.250458598,1.613432288
1.68029E+18,0.959436035,-0.508536637,-1.31358397,1.805247784
1.68029E+18,0.969510742,-0.492605001,-1.435103416,1.923646688
1.68029E+18,0.97958667,-0.483060777,-1.447916865,1.975535154
1.68029E+18,0.989661865,-0.500406325,-1.454994321,1.974052668
1.68029E+18,0.999738037,-0.536291122,-1.545099974,1.927748203
1.68029E+18,1.009812744,-0.597799182,-1.614826322,1.862911344
1.68029E+18,1.019887695,-0.680710316,-1.6856215,1.805531383
1.68029E+18,1.029963867,-0.757585347,-1.707647324,1.740538955
1.68029E+18,1.040038818,-0.83306706,-1.677051783,1.690816164
1.68029E+18,1.050114746,-0.908798873,-1.700801969,1.636232615
1.68029E+18,1.060189941,-0.991911054,-1.790134072,1.614335895
1.68029E+18,1.070266113,-1.071322918,-1.910669684,1.587480307
1.68029E+18,1.08034082,-1.152334452,-2.059173107,1.604068875
1.68029E+18,1.090415771,-1.248456597,-2.110219717,1.636348844
1.68029E+18,1.100491943,-1.331434608,-2.055708408,1.676338911
1.68029E+18,1.110566895,-1.4121387,-1.985480428,1.712112784
1.68029E+18,1.120642822,-1.498808146,-2.022020102,1.76886642
1.68029E+18,1.130717773,-1.585660934,-2.120057344,1.82738483
1.68029E+18,1.140793701,-1.658917069,-2.241155863,1.906202674
1.68029E+18,1.150868896,-1.748149872,-2.401890278,2.003808975
1.68029E+18,1.160943848,-1.829878569,-2.465029478,2.088190556
1.68029E+18,1.171019775,-1.908022165,-2.42094779,2.151285172
1.68029E+18,1.181094727,-1.971433401,-2.399958611,2.175994635
1.68029E+18,1.191170898,-2.02409935,-2.253589153,2.178423166
1.68029E+18,1.20124585,-2.065259218,-2.059735775,2.160188913
1.68029E+18,1.211320801,-2.087155104,-1.9282161,2.137686491
1.68029E+18,1.221396973,-2.10168457,-1.874253869,2.128657579
1.68029E+18,1.231472168,-2.118623495,-1.797027588,2.129282475
1.68029E+18,1.241547607,-2.120828867,-1.712451458,2.160809755
1.68029E+18,1.251622803,-2.142386675,-1.763255239,2.220392466
1.68029E+18,1.261698975,-2.16778779,-1.85326767,2.266915321
1.68029E+18,1.271773926,-2.211738586,-1.93245852,2.333284855
1.68029E+18,1.281848877,-2.263885975,-1.982611418,2.39471221
1.68029E+18,1.291925049,-2.326807976,-2.080533266,2.463063717
1.68029E+18,1.301999756,-2.403066397,-2.1517241,2.523274899
1.68029E+18,1.312075684,-2.489217281,-2.15554595,2.586885929
1.68029E+18,1.322150879,-2.597430944,-2.288302183,2.661152601
1.68029E+18,1.332227051,-2.711021185,-2.411713123,2.718361378
1.68029E+18,1.342302002,-2.836041212,-2.472728491,2.786220312
1.68029E+18,1.352376709,-2.952082872,-2.550627708,2.859381676
1.68029E+18,1.362452881,-3.066312313,-2.606860399,2.947594404
1.68029E+18,1.372527832,-3.157233953,-2.577825069,3.047557592
1.68029E+18,1.38260376,-3.239373684,-2.620487452,3.192333937
1.68029E+18,1.392678955,-3.322984457,-2.626807928,3.335908175
1.68029E+18,1.402753662,-3.400260925,-2.657438993,3.514098883
1.68029E+18,1.412829834,-3.465344906,-2.656101704,3.69339776
1.68029E+18,1.422905029,-3.522638321,-2.67250371,3.89659214
1.68029E+18,1.432980957,-3.589109898,-2.750891209,4.083006382
1.68029E+18,1.443055908,-3.61965251,-2.870280266,4.25096941
1.68029E+18,1.45313208,-3.639206171,-2.926936626,4.394119263
1.68029E+18,1.463206787,-3.651330709,-2.921201944,4.507021904
1.68029E+18,1.473281738,-3.662916183,-2.889435291,4.578333855
1.68029E+18,1.48335791,-3.652682066,-2.932308435,4.622444153
1.68029E+18,1.493433105,-3.655139208,-3.011332989,4.649542809
1.68029E+18,1.503508789,-3.660296202,-2.928600788,4.659632683
1.68029E+18,1.51358374,-3.658145905,-2.753216982,4.687061787
1.68029E+18,1.523659912,-3.636733294,-2.596255779,4.70637989
1.68029E+18,1.533734863,-3.590208769,-2.369551897,4.726562023
1.68029E+18,1.543809814,-3.48825717,-2.082269669,4.738940239
1.68029E+18,1.553885986,-3.348874331,-1.87594533,4.757522583
1.68029E+18,1.563960938,-3.157747746,-1.64537096,4.755383492
1.68029E+18,1.574036621,-2.906093836,-1.509244204,4.748883724
1.68029E+18,1.584111816,-2.651025057,-1.475024104,4.680286407
1.68029E+18,1.594187988,-2.43056488,-1.571018338,4.587424755
1.68029E+18,1.604262939,-2.227747202,-1.66968739,4.45365572
1.68029E+18,1.614337891,-2.070701122,-1.643619537,4.295819759
1.68029E+18,1.624413818,-1.879013062,-1.523719549,4.144340038
1.68029E+18,1.63448877,-1.683179617,-1.545707583,3.969217062
1.68029E+18,1.644564941,-1.520034909,-1.59962523,3.771029234
1.68029E+18,1.654639893,-1.367510557,-1.612051249,3.600614786
1.68029E+18,1.6647146,-1.22777319,-1.460265756,3.435121298
1.68029E+18,1.674790771,-1.082448959,-1.226876974,3.315871477
1.68029E+18,1.684865967,-0.958881497,-1.173716545,3.200410366
1.68029E+18,1.694941895,-0.872999609,-1.415781498,3.112334728
1.68029E+18,1.705016846,-0.803575039,-1.717142344,3.025705099
1.68029E+18,1.715093018,-0.75263387,-1.761443257,2.961061239
1.68029E+18,1.725167969,-0.716854572,-1.722303629,2.916448593
1.68029E+18,1.735242676,-0.688833952,-1.696362257,2.82735467
1.68029E+18,1.745318848,-0.665425539,-1.721635461,2.712499142
1.68029E+18,1.755394043,-0.677621603,-1.629912019,2.625057459
1.68029E+18,1.765469971,-0.705338717,-1.237030983,2.503054857
1.68029E+18,1.775544678,-0.762008727,-0.818029404,2.386510134
1.68029E+18,1.78562085,-0.829807997,-0.581924677,2.248001814
1.68029E+18,1.795696045,-0.925467253,-0.500404418,2.098799229
1.68029E+18,1.805770996,-1.038251877,-0.489487827,1.918720722
1.68029E+18,1.815846924,-1.166208982,-0.59909606,1.759581208
1.68029E+18,1.825921875,-1.285670161,-0.762784898,1.572705507
1.68029E+18,1.835997803,-1.393378973,-0.798985839,1.367459297
1.68029E+18,1.846072754,-1.492530942,-0.710742533,1.162217736
1.68029E+18,1.856148926,-1.566053391,-0.475247592,0.942295551
1.68029E+18,1.866223877,-1.617947459,-0.05682743,0.715633392
1.68029E+18,1.876298828,-1.657106876,0.171377286,0.496029317
1.68029E+18,1.886374756,-1.695349336,0.243789971,0.226472139
1.68029E+18,1.896449707,-1.733376026,0.22832042,-0.037900023
1.68029E+18,1.906525879,-1.780070305,0.194411993,-0.291509122
1.68029E+18,1.91660083,-1.826161623,0.070095412,-0.537515819
1.68029E+18,1.926677002,-1.883817792,-0.216617048,-0.765240848
1.68029E+18,1.936751709,-1.928992033,-0.357188672,-0.967530966
1.68029E+18,1.946826904,-1.993489265,-0.31865114,-1.122982621
1.68029E+18,1.956902832,-2.054713011,-0.191021547,-1.238236308
1.68029E+18,1.966977783,-2.112714529,0.029252766,-1.346365213
1.68029E+18,1.977053955,-2.185347795,0.160877258,-1.438797712
1.68029E+18,1.987128906,-2.271575689,0.300270051,-1.525152326
1.68029E+18,1.997204834,-2.359431028,0.418531567,-1.604282379
1.68029E+18,2.007279785,-2.459982634,0.449905455,-1.653268576
1.68029E+18,2.01735498,-2.547121763,0.492207468,-1.707527757
1.68029E+18,2.027430908,-2.643471241,0.567294776,-1.72716403
1.68029E+18,2.037505615,-2.744814396,0.665380538,-1.727793574
1.68029E+18,2.047581787,-2.822695732,0.78392899,-1.756018043
1.68029E+18,2.057656982,-2.91975832,0.872130811,-1.78305769
1.68029E+18,2.067732666,-2.994447947,0.951769471,-1.867362499
1.68029E+18,2.077807861,-3.061942101,0.914928734,-2.025606871
1.68029E+18,2.087883057,-3.107414007,0.57771343,-2.275954485
1.68029E+18,2.09795874,-3.093749762,0.328989446,-2.660470724
1.68029E+18,2.108033691,-3.024965525,0.450712144,-3.081442118
1.68029E+18,2.118109863,-2.880726099,0.850967407,-3.519730091
1.68029E+18,2.128184814,-2.656431437,1.242498159,-4.001243591
1.68029E+18,2.138260742,-2.414583445,0.931861162,-4.508563519
1.68029E+18,2.148335693,-2.020866394,0.969414651,-5.135392666
1.68029E+18,2.158410889,-1.579555035,0.979732931,-5.798814774
1.68029E+18,2.168486816,-1.059389949,0.622840822,-6.599462509
1.68029E+18,2.178562012,-0.313682854,1.006838322,-7.702253819
1.68029E+18,2.188637939,0.429534853,1.073104501,-9.003645897
1.68029E+18,2.198712646,1.296398401,1.029097319,-10.73398304
1.68029E+18,2.208788818,2.477936983,0.649356067,-13.02550697
1.68029E+18,2.21886377,3.695930719,0.437853605,-15.50701714
1.68029E+18,2.228938721,5.164960861,-0.174779952,-18.11640739
1.68029E+18,2.239014893,6.755800247,-0.212320879,-20.39089966
1.68029E+18,2.249090088,8.598168373,-0.374659449,-22.35152817
1.68029E+18,2.259165771,9.437119484,-3.79364562,-18.81836891
1.68029E+18,2.269240723,11.49157715,-0.407849699,-21.08027649
1.68029E+18,2.279315918,13.31008053,-1.370972633,-19.68444061
1.68029E+18,2.28939209,14.23497295,-2.572832346,-18.28774452
1.68029E+18,2.299466797,14.30284119,-5.790529728,-16.50634003
1.68029E+18,2.309542969,13.65811825,-8.007464409,-14.04109097
1.68029E+18,2.31961792,12.04374218,-6.382330418,-11.22316456
1.68029E+18,2.329693604,9.784141541,-1.891174912,-9.037342072
1.68029E+18,2.339768799,7.339831829,1.651789546,-7.395191669
1.68029E+18,2.349843994,5.028098583,3.512336969,-6.216386795
1.68029E+18,2.359920166,3.08238554,4.947453022,-5.154934406
1.68029E+18,2.369994873,1.536841393,6.594072819,-3.853408575
1.68029E+18,2.380070801,0.531867385,7.611547947,-2.626291752
1.68029E+18,2.390145996,0.025272379,6.675057411,-1.518918753
1.68029E+18,2.400220947,-0.12188933,5.285739899,-0.689758539
1.68029E+18,2.410296875,-0.162754476,3.247493267,-0.029420786
1.68029E+18,2.420371826,-0.276637197,0.982370734,0.501609564
1.68029E+18,2.430447754,-0.313505739,-1.360532999,0.742636263
1.68029E+18,2.440522949,-0.268535763,-3.050550461,0.782876194
1.68029E+18,2.450598877,-0.124950901,-2.976160765,0.874921143
1.68029E+18,2.460673828,0.108560689,-1.567512393,0.984078109
1.68029E+18,2.470748779,0.422658443,-0.58066237,0.951953232
1.68029E+18,2.480824951,0.710049152,-0.214867502,0.761303067
1.68029E+18,2.490899658,0.897737801,-0.329761893,0.477579981
1.68029E+18,2.50097583,1.021991968,-0.708824635,0.182990342
1.68029E+18,2.511051025,1.104755759,-1.138461232,-0.123644441
1.68029E+18,2.521125732,1.151894927,-1.086652398,-0.330213845
1.68029E+18,2.53120166,1.16083169,-0.666541457,-0.423143238
1.68029E+18,2.541276855,1.105866075,-0.117671594,-0.433724821
1.68029E+18,2.551353027,1.022919774,0.182564393,-0.475850165
1.68029E+18,2.561427979,0.889191687,0.095903665,-0.500470221
1.68029E+18,2.571503906,0.716372788,-0.049976308,-0.479785442
1.68029E+18,2.581578857,0.480958253,-0.262236327,-0.408050954
1.68029E+18,2.591653809,0.287850052,-0.366755545,-0.331576437
1.68029E+18,2.601729736,0.126054376,-0.366910398,-0.219416663
1.68029E+18,2.611804932,0.010436709,-0.106571242,-0.066497959
1.68029E+18,2.621881104,-0.037389327,0.222711489,0.083985507
1.68029E+18,2.631955811,-0.037760042,0.399307549,0.177815601
1.68029E+18,2.642031738,-0.011608791,0.399264067,0.238511398
1.68029E+18,2.652106934,0.001076645,0.265051663,0.291189253
1.68029E+18,2.662181885,-0.012405951,0.033726547,0.319440275
1.68029E+18,2.672257813,-0.046412122,-0.201030314,0.341102421
1.68029E+18,2.682332764,-0.08975628,-0.348005384,0.374407023
1.68029E+18,2.692408691,-0.136379182,-0.439572066,0.42668274
1.68029E+18,2.702483887,-0.174187616,-0.543451965,0.45614329
1.68029E+18,2.712559814,-0.195725933,-0.69530195,0.458092451
1.68029E+18,2.722634766,-0.221332878,-0.796211302,0.475473881
1.68029E+18,2.732709717,-0.222445548,-0.743328333,0.49717623
1.68029E+18,2.742785889,-0.221256867,-0.63817668,0.510617614
1.68029E+18,2.75286084,-0.216421098,-0.574223816,0.510667145
1.68029E+18,2.762936768,-0.22688511,-0.518344879,0.512550235
1.68029E+18,2.773011963,-0.23543705,-0.378900915,0.516330361
1.68029E+18,2.783087158,-0.246236771,-0.162224412,0.530675054
1.68029E+18,2.793162842,-0.266853899,0.002030576,0.539774001
1.68029E+18,2.803238037,-0.309391171,-0.000516943,0.553619921
1.68029E+18,2.813313965,-0.347579032,-0.120391153,0.55257678
1.68029E+18,2.82338916,-0.394751817,-0.281024903,0.551521242
