time,seconds_elapsed,z,y,x
1680291394094560300,2.80056030273437,1.42289996147155,0.377700001001358,0.44099998474121
1680291394104560400,2.81056030273437,1.6521999835968,0.288699984550476,0.27030000090599
1680291394114560300,2.82056030273437,1.84019994735717,0.48099997639656,0.0995000004768371
1680291394124560400,2.83056030273437,2.07489991188049,0.466199994087219,0.00949999969452619
1680291394134560300,2.84056030273437,2.24059987068176,0.313299983739852,-0.061999998986721
1680291394144560400,2.85056030273437,2.48300004005432,0.227200001478195,-0.0361000001430511
1680291394154560300,2.86056030273437,2.59859991073608,0.240999996662139,0.00169999990612268
1680291394164560400,2.87056030273437,2.63289999961853,0.38969999551773,-0.0374999977648258
1680291394174569700,2.88056982421875,2.76179981231689,0.418300002813339,0.0353999994695186
1680291394184560400,2.89056030273437,2.78449988365173,0.470399975776672,-0.0412000007927417
1680291394194560300,2.90056030273437,2.93879985809326,0.567999958992004,-0.0110999997705221
1680291394204562000,2.91056201171875,3.0676999092102,0.680399954319,0.0697999969124794
1680291394214560300,2.92056030273437,3.05229997634887,0.895199954509735,0.0583999976515769
1680291394224560400,2.93056030273437,3.07889986038208,0.947099983692169,0.117899999022483
1680291394234560300,2.94056030273437,3.05909991264343,1.02179992198944,0.216499999165534
1680291394244560400,2.95056030273437,3.19829988479614,1.0009000301361,0.275199979543685
1680291394254560300,2.96056030273437,3.27369999885559,0.673200011253356,0.535600006580352
1680291394264560400,2.97056030273437,3.42499995231628,0.29909998178482,0.645199954509735
1680291394274560300,2.98056030273437,3.64579987525939,0.379799991846084,0.69729995727539
1680291394284560400,2.99056030273437,3.81839990615844,0.852899968624115,0.594599962234497
1680291394294561800,3.00056176757812,3.75039982795715,1.08399999141693,0.579299986362457
1680291394304560400,3.01056030273437,3.65119981765747,0.692999958992004,0.599900007247924
1680291394314560300,3.02056030273437,3.54659986495971,0.589199960231781,0.589399993419647
1680291394324560400,3.03056030273437,3.75849986076355,0.906699955463409,0.62849998474121
1680291394334560300,3.04056030273437,3.7577998638153,1.0355999469757,0.717099964618682
1680291394344560400,3.05056030273437,4.00869989395141,0.815099954605102,0.918999969959259
1680291394354560300,3.06056030273437,4.12750005722045,0.456299990415573,1.18339991569519
1680291394364560400,3.07056030273437,4.36089992523193,0.28270000219345,1.38289999961853
1680291394374560300,3.08056030273437,4.48920011520385,0.394799977540969,1.47519993782043
1680291394384560400,3.09056030273437,4.49919986724853,0.575899958610534,1.40160000324249
1680291394394560300,3.10056030273437,4.37260007858276,0.649500012397766,1.39679992198944
1680291394404560400,3.11056030273437,4.26999998092651,0.671000003814697,1.22140002250671
1680291394414560300,3.12056030273437,4.41359996795654,0.634199976921081,1.25449991226196
1680291394424562000,3.13056201171875,4.59819984436035,0.504400014877319,1.27899992465972
1680291394434560300,3.14056030273437,4.68569993972778,-0.0696000009775161,1.41489994525909
1680291394444560400,3.15056030273437,4.99090003967285,-0.349599987268447,1.58829998970031
1680291394454560300,3.16056030273437,5.29719972610473,-0.138799995183944,1.61939990520477
1680291394464560400,3.17056030273437,5.55449962615966,0.34809997677803,1.69229996204376
1680291394474560300,3.18056030273437,5.61609983444213,0.314399987459182,1.75
1680291394484560400,3.19056030273437,5.66769981384277,-0.134199991822242,1.73109996318817
1680291394494560300,3.20056030273437,6.18050003051757,-0.488999992609024,2.10839986801147
1680291394504560400,3.21056030273437,6.43869972229003,-0.960299968719482,2.87569999694824
1680291394514560300,3.22056030273437,6.91459989547729,-0.617900013923645,3.39789986610412
1680291394524560400,3.23056030273437,7.589599609375,-0.151199996471405,2.64170002937316
1680291394534560300,3.24056030273437,7.71939992904663,-0.5625,1.92689990997314
1680291394544562000,3.25056201171875,8.16149997711181,-0.813699960708618,2.58249998092651
1680291394554560300,3.26056030273437,8.0595998764038,-1.14600002765655,3.98919987678527
1680291394564560400,3.27056030273437,8.28359985351562,-1.56999993324279,4.60179996490478
1680291394574560300,3.28056030273437,8.53139972686767,-1.55979990959167,4.55649995803833
1680291394584560400,3.29056030273437,8.87489986419677,-1.93109989166259,3.9753999710083
1680291394594560300,3.30056030273437,9.39610004425048,-2.62829995155334,3.75139999389648
1680291394604560400,3.31056030273437,9.69750022888183,-3.10479998588562,3.79239988327026
1680291394614560300,3.32056030273437,9.6826000213623,-3.92769980430603,3.65199995040893
1680291394624560400,3.33056030273437,10.0810995101928,-4.50570011138916,2.37080001831054
1680291394634560300,3.34056030273437,10.0429000854492,-5.11759996414184,2.15139985084533
1680291394644560400,3.35056030273437,10.1743001937866,-5.67339992523193,2.88619995117187
1680291394654560300,3.36056030273437,9.81269931793212,-5.96059989929199,3.23790001869201
1680291394664560400,3.37056030273437,9.36929988861084,-6.40779972076416,3.48079991340637
1680291394674560300,3.38056030273437,9.32849979400634,-6.38249969482421,3.01519989967346
1680291394684560400,3.39056030273437,9.07399940490722,-7.23759984970092,2.75389981269836
1680291394694560300,3.40056030273437,8.84619998931884,-7.34689998626709,2.73589992523193
1680291394704562000,3.41056201171875,8.15629959106445,-8.02929973602295,2.30369997024536
1680291394714560300,3.42056030273437,8.40759944915771,-8.58799934387207,2.67289996147155
1680291394724560400,3.43056030273437,8.51399993896484,-8.92000007629394,2.91199994087219
1680291394734560300,3.44056030273437,8.58930015563964,-9.70069980621337,3.58899998664855
1680291394744560400,3.45056030273437,9.06540012359619,-10.7836999893188,3.78269982337951
1680291394754560300,3.46056030273437,9.20209980010986,-12.2277994155883,3.88419985771179
1680291394764560400,3.47056030273437,8.99689960479736,-12.3357992172241,3.35949993133544
1680291394774560300,3.48056030273437,8.35270023345947,-12.8726997375488,3.5025999546051
1680291394784560400,3.49056030273437,7.38319969177246,-13.2861995697021,3.60689997673034
1680291394794560300,3.50056030273437,6.38679981231689,-13.7501993179321,3.4640998840332
1680291394804560400,3.51056030273437,5.44409990310668,-13.143699645996,5.12339973449707
1680291394814560300,3.52056030273437,4.54689979553222,-13.2676000595092,5.86069965362548
1680291394824560400,3.53056030273437,4.37050008773803,-13.2547998428344,4.19889974594116
1680291394834560300,3.54056030273437,3.65609979629516,-13.6518993377685,4.60829973220825
1680291394844560400,3.55056030273437,3.57239985466003,-13.7114000320434,5.76179981231689
1680291394854560300,3.56056030273437,3.49399995803833,-13.3090991973876,6.0797996520996
1680291394864560400,3.57056030273437,3.28719997406005,-13.7040996551513,4.96759986877441
1680291394874560300,3.58056030273437,3.07299995422363,-13.4650993347167,3.10599994659423
1680291394884560400,3.59056030273437,2.51259994506835,-13.7721996307373,2.10730004310607
1680291394894560300,3.60056030273437,1.89309990406036,-13.1739997863769,2.01869988441467
1680291394904562000,3.61056201171875,1.76809990406036,-12.4959001541137,1.62699997425079
1680291394914560300,3.62056030273437,1.1877999305725,-12.6089000701904,0.911199986934661
1680291394924560400,3.63056030273437,1.20609998703002,-12.738299369812,0.250499993562698
1680291394934560300,3.64056030273437,1.39619994163513,-13.0810995101928,-0.244199991226196
1680291394944560400,3.65056030273437,1.32980000972747,-13.4479999542236,-0.712899982929229
1680291394954560300,3.66056030273437,1.00940001010894,-13.2560997009277,-1.42009997367858
1680291394964560400,3.67056030273437,-0.266499996185302,-13.1714992523193,-2.57679986953735
1680291394974560300,3.68056030273437,-1.04890000820159,-12.8351993560791,-3.59879994392395
1680291394984560400,3.69056030273437,-1.59119999408721,-12.330599784851,-4.49079990386962
1680291394994560300,3.70056030273437,-1.96169996261596,-12.5296001434326,-4.17259979248046
1680291395004560400,3.71056030273437,-2.80359983444213,-13.3908996582031,-3.95770001411438
1680291395014560300,3.72056030273437,-4.07170009613037,-14.6765995025634,-5.22599983215332
1680291395024560400,3.73056030273437,-5.32809972763061,-15.5836000442504,-7.61949968338012
1680291395034560300,3.74056030273437,-6.91989994049072,-16.2596988677978,-7.91129970550537
1680291395044560400,3.75056030273437,-9.21369934082031,-16.6394996643066,-7.67339992523193
1680291395054560300,3.76056030273437,-10.0275001525878,-16.6322002410888,-7.3289999961853
1680291395064560400,3.77056030273437,-11.1078996658325,-16.8164005279541,-8.06180000305175
1680291395074560300,3.78056030273437,-11.0668001174926,-17.911298751831,-8.63099956512451
1680291395084560400,3.79056030273437,-11.7375993728637,-19.6800994873046,-9.1343994140625
1680291395094560300,3.80056030273437,-11.5016994476318,-22.0320987701416,-10.0932998657226
1680291395104560400,3.81056030273437,-9.95139980316162,-25.0743999481201,-9.3927001953125
1680291395114560300,3.82056030273437,-10.3158998489379,-27.4214000701904,-7.47469997406005
1680291395124560400,3.83056030273437,-12.5033998489379,-30.1394996643066,-4.00570011138916
1680291395134560300,3.84056030273437,-12.439299583435,-32.1474990844726,-0.839100003242492
1680291395144569600,3.85056958007812,-12.0743999481201,-31.9986000061035,-0.563199996948242
1680291395154560300,3.86056030273437,-10.880199432373,-33.9618988037109,1.14789998531341
1680291395164560400,3.87056030273437,-7.14739990234375,-36.9475975036621,4.3157000541687
1680291395174561800,3.88056176757812,-3.80419993400573,-41.4678993225097,7.8769998550415
1680291395184560400,3.89056030273437,2.96930003166198,-47.9914970397949,11.3067998886108
1680291395194561800,3.90056176757812,1.525200009346,-55.0224990844726,14.1617994308471
1680291395204560400,3.91056030273437,41.026798248291,-53.6609001159668,21.8354988098144
1680291395214560300,3.92056030273437,1.6550999879837,-58.597297668457,30.4989986419677
1680291395224560400,3.93056030273437,37.4592971801757,-69.6140975952148,23.4258995056152
1680291395234561800,3.94056176757812,36.9323997497558,-65.1462020874023,27.1862983703613
1680291395244574500,3.95057446289062,35.9706001281738,-67.2585983276367,23.3120002746582
1680291395254560300,3.96056030273437,23.3064002990722,-63.7248001098632,22.0261993408203
1680291395264560400,3.97056030273437,25.7869987487792,-53.2861976623535,28.3695983886718
1680291395274560300,3.98056030273437,16.930700302124,-40.5016975402832,18.7073993682861
1680291395284562000,3.99056201171875,16.8444004058837,-31.1299991607666,16.7495002746582
1680291395294561800,4.00056176757812,12.2575998306274,-20.8460998535156,12.497799873352
1680291395304560400,4.01056030273437,12.8048000335693,-16.942699432373,16.0786991119384
1680291395314560300,4.02056030273437,11.8955993652343,-12.4381999969482,11.3851995468139
1680291395324562000,4.03056201171875,12.1529998779296,-11.6342000961303,6.12659978866577
1680291395334561800,4.04056176757812,10.9345998764038,-11.355899810791,5.29879999160766
1680291395344562000,4.05056201171875,12.49169921875,-10.211199760437,7.29399967193603
1680291395354561800,4.06056176757812,12.7484998703002,-8.25920009613037,11.7855997085571
1680291395364562000,4.07056201171875,13.8246994018554,-6.99399995803833,16.4253997802734
1680291395374561800,4.08056176757812,14.2287998199462,-6.17789983749389,13.6328992843627
1680291395384562000,4.09056201171875,14.7542991638183,-5.58969974517822,6.97799968719482
1680291395394560300,4.10056030273437,13.7223997116088,-6.13479995727539,5.0625
1680291395404560400,4.11056030273437,12.4699001312255,-3.77269983291625,9.73359966278076
1680291395414561800,4.12056176757812,12.0686998367309,-3.09869980812072,8.67159938812255
1680291395424562000,4.13056201171875,11.0816993713378,-5.16849994659423,10.0538997650146
1680291395434561800,4.14056176757812,11.6820001602172,-5.39379978179931,6.68009996414184
1680291395444560400,4.15056030273437,11.6372995376586,-4.06619977951049,6.42609977722168
1680291395454561800,4.16056176757812,12.1866998672485,-3.27429986000061,7.55279970169067
1680291395464562000,4.17056201171875,12.2467994689941,-3.01950001716613,8.19110012054443
1680291395474561800,4.18056176757812,11.8758001327514,-1.87659990787506,8.42509937286377
1680291395484562000,4.19056201171875,10.9200992584228,-0.671799957752227,9.35009956359863
1680291395494561800,4.20056176757812,9.91720008850097,-0.0843999981880188,8.902099609375
1680291395504560400,4.21056030273437,8.86009979248046,-0.00699999975040555,6.26340007781982
1680291395514561800,4.22056176757812,8.20699977874755,0.1030999943614,4.96840000152587
1680291395524562000,4.23056201171875,8.08049964904785,-0.274100005626678,4.76379966735839
1680291395534561800,4.24056176757812,8.12590026855468,-0.200599998235702,4.83360004425048
1680291395544562000,4.25056201171875,8.36199951171875,0.904799997806549,4.71149969100952
1680291395554561800,4.26056176757812,7.69119977951049,1.69059991836547,4.52119970321655
1680291395564560400,4.27056030273437,7.4185996055603,1.3746999502182,4.18540000915527
1680291395574560300,4.28056030273437,6.61380004882812,1.29890000820159,3.44669985771179
1680291395584565000,4.29056494140625,6.02259969711303,1.04979991912841,3.22679996490478
1680291395594560300,4.30056030273437,5.49760007858276,0.509400010108947,3.2311999797821
1680291395604562000,4.31056201171875,5.10699987411499,0.195599988102912,3.30609989166259
1680291395614560300,4.32056030273437,4.7438998222351,0.382200002670288,3.17030000686645
1680291395624560400,4.33056030273437,4.21159982681274,0.295499980449676,2.77009987831115
1680291395634560300,4.34056030273437,3.52199983596801,-0.238899990916252,2.32159996032714
1680291395644560400,4.35056030273437,2.79289984703063,-0.799699962139129,1.92189991474151
1680291395654560300,4.36056030273437,2.21219992637634,-0.853899955749511,1.40230000019073
1680291395664560400,4.37056030273437,1.89889991283416,-0.64300000667572,0.957599997520446
1680291395674560300,4.38056030273437,1.47149991989135,-0.310599982738494,0.536599993705749
1680291395684560400,4.39056030273437,1.26789999008178,-0.146599993109703,0.462499976158142
1680291395694561800,4.40056176757812,1.06599998474121,-0.0143999997526407,0.8885999917984
1680291395704560400,4.41056030273437,0.963999986648559,0.214699998497962,1.23729991912841
1680291395714561800,4.42056176757812,0.932599961757659,0.37389999628067,1.50370001792907
1680291395724560400,4.43056030273437,0.806299984455108,-0.283600002527236,1.76429998874664
1680291395734560300,4.44056030273437,0.659200012683868,-1.13749992847442,1.32330000400543
1680291395744560400,4.45056030273437,0.553200006484985,-1.22269999980926,0.431599974632263
1680291395754560300,4.46056030273437,0.334899991750717,-0.627299964427948,-0.223399996757507
1680291395764562000,4.47056201171875,0.0775000005960464,-0.253699988126754,-0.265599995851516
1680291395774560300,4.48056030273437,-0.330699980258941,-0.223600000143051,-0.145199999213218
1680291395784562000,4.49056201171875,-0.432699978351593,-0.190999999642372,-0.000599999970290809
1680291395794561800,4.50056176757812,-0.652399957180023,-0.169499993324279,0.154200002551078
1680291395804562000,4.51056201171875,-0.662999987602233,-0.72240000963211,0.414899975061416
1680291395814561800,4.52056176757812,-0.896799981594085,-1.24239993095397,0.342500001192092
1680291395824562000,4.53056201171875,-0.903499960899353,-0.983999967575073,-0.0100999996066093
1680291395834561800,4.54056176757812,-1.07569992542266,-0.831999957561492,-0.13740000128746
1680291395844562000,4.55056201171875,-1.07009994983673,-0.993099987506866,-0.227899998426437
1680291395854561800,4.56056176757812,-1.19179999828338,-0.966799974441528,-0.432799994945526
1680291395864562000,4.57056201171875,-1.067999958992,-0.683399975299835,-0.475199997425079
1680291395874561800,4.58056176757812,-0.992299973964691,-0.57449996471405,-0.172600001096725
1680291395884562000,4.59056201171875,-0.905999958515167,-0.739099979400634,-0.0852999985218048
1680291395894561800,4.60056176757812,-0.867100000381469,-1.07889997959136,-0.19820000231266
1680291395904560400,4.61056030273437,-0.85259997844696,-1.00950002670288,-0.378800004720687
1680291395914560300,4.62056030273437,-0.682099997997283,-0.524599969387054,-0.554499983787536
1680291395924560400,4.63056030273437,-0.635800004005432,-0.164299994707107,-0.618299961090087
1680291395934560300,4.64056030273437,-0.631599962711334,-0.0857999995350837,-0.586799979209899
1680291395944562000,4.65056201171875,-0.677299976348877,-0.0876999944448471,-0.555400013923645
1680291395954561800,4.66056176757812,-0.587599992752075,-0.0354999974370002,-0.466399997472763
1680291395964580600,4.67058056640625,-0.466099977493286,-0.120499998331069,-0.258199989795684
1680291395974564900,4.68056494140625,-0.542100012302398,-0.225799992680549,-0.230599999427795
1680291395984562000,4.69056201171875,-0.448199987411499,-0.233300000429153,-0.293999999761581
1680291395994561800,4.70056176757812,-0.483599990606308,-0.0165999997407197,-0.252000004053115
1680291396004562000,4.71056201171875,-0.450399994850158,0.0635000020265579,-0.235599994659423
1680291396014561800,4.72056176757812,-0.543299973011016,-0.0615999996662139,-0.195699989795684
1680291396024562000,4.73056201171875,-0.50789999961853,-0.224699988961219,-0.0672999992966651
1680291396034561800,4.74056176757812,-0.442399978637695,-0.131999999284744,-0.0865999981760978
1680291396044565000,4.75056494140625,-0.454799979925155,0.125499993562698,-0.0938000008463859
1680291396054561800,4.76056176757812,-0.35929998755455,0.253600001335144,0.0210999995470047
1680291396064560400,4.77056030273437,-0.342999994754791,0.359699994325637,0.133499994874
1680291396074561800,4.78056176757812,-0.356399983167648,0.278099983930587,0.184900000691413
