time,seconds_elapsed,z,y,x
1680291145554560300,2.50356030273437,3.86789989471435,1.0518000125885,0.752799987792968
1680291145564560400,2.51356030273437,3.43919992446899,0.97979998588562,0.92929995059967
1680291145574560300,2.52356030273437,3.15319991111755,1.09200000762939,0.996599972248077
1680291145584562000,2.53356201171875,3.03869986534118,1.34969997406005,0.858399987220764
1680291145594560300,2.54356030273437,3.03709983825683,1.4591999053955,0.521499991416931
1680291145604560400,2.55356030273437,2.95749998092651,1.53219997882843,0.39190000295639
1680291145614560300,2.56356030273437,3.00399994850158,1.45609998703002,0.217599987983703
1680291145624560400,2.57356030273437,2.99669981002807,1.40349996089935,0.0182999987155199
1680291145634561800,2.58356176757812,3.14329981803894,1.35430002212524,-0.106100000441074
1680291145644560400,2.59356030273437,3.18179988861084,1.16299998760223,-0.13799999654293
1680291145654560300,2.60356030273437,3.24070000648498,0.898899972438812,-0.133699998259544
1680291145664560400,2.61356030273437,3.31079983711242,0.739499986171722,-0.0940999984741211
1680291145674560300,2.62356030273437,3.47169995307922,0.764799952507019,-0.0908999964594841
1680291145684560400,2.63356030273437,3.52740001678466,0.72020000219345,-0.0654999986290931
1680291145694560300,2.64356030273437,3.58619999885559,0.625699996948242,-0.173500001430511
1680291145704560400,2.65356030273437,3.55979990959167,0.500800013542175,-0.164999991655349
1680291145714560300,2.66356030273437,3.56559991836547,0.344899982213974,-0.174999997019767
1680291145724560400,2.67356030273437,3.75039982795715,0.255299985408782,-0.140000000596046
1680291145734560300,2.68356030273437,3.60329985618591,0.171499997377395,-0.088199995458126
1680291145744562000,2.69356201171875,3.78069996833801,0.259200006723403,-0.00150000001303851
1680291145754560300,2.70356030273437,3.89849996566772,0.202500000596046,0.243499994277954
1680291145764560400,2.71356030273437,4.02379989624023,0.136500000953674,0.493799984455108
1680291145774560300,2.72356030273437,4.04829978942871,0.178099989891052,0.625
1680291145784560400,2.73356030273437,4.3838996887207,0.297099977731704,0.704599976539611
1680291145794560300,2.74356030273437,4.38289976119995,0.285600006580352,0.621899962425231
1680291145804560400,2.75356030273437,4.41849994659423,0.191199988126754,0.607400000095367
1680291145814561800,2.76356176757812,4.58089971542358,0.24889999628067,0.653599977493286
1680291145824560400,2.77356030273437,4.70489978790283,0.0461999997496604,0.798599958419799
1680291145834560300,2.78356030273437,5.20370006561279,0.181199997663497,1.03899991512298
1680291145844560400,2.79356030273437,5.46039962768554,0.173199996352195,1.26899993419647
1680291145854560300,2.80356030273437,5.65269994735717,-0.418199986219406,1.50689995288848
1680291145864560400,2.81356030273437,5.71320009231567,-0.522899985313415,1.7664999961853
1680291145874560300,2.82356030273437,6.03399991989135,-0.593299984931945,1.95729994773864
1680291145884566500,2.83356640625,6.50229978561401,-0.589899957180023,2.28979992866516
1680291145894560300,2.84356030273437,7.68919992446899,-0.543599963188171,2.99749994277954
1680291145904560400,2.85356030273437,8.72319984436035,-0.861499965190887,3.73169994354248
1680291145914561800,2.86356176757812,9.75119972229003,-0.861899971961975,4.34249973297119
1680291145924562000,2.87356201171875,10.153299331665,-1.99339997768402,5.17280006408691
1680291145934560300,2.88356030273437,10.3674993515014,-2.87800002098083,5.18020009994506
1680291145944560400,2.89356030273437,10.268699645996,-2.58859992027282,5.18279981613159
1680291145954561800,2.90356176757812,10.0837993621826,-3.08879995346069,5.35579967498779
1680291145964560400,2.91356030273437,9.94659996032714,-3.29589986801147,5.33309984207153
1680291145974560300,2.92356030273437,9.98799991607666,-3.24039983749389,5.1314001083374
1680291145984560400,2.93356030273437,9.80429935455322,-4.69409990310668,5.12109994888305
1680291145994560300,2.94356030273437,9.63519954681396,-5.93209981918335,5.04879999160766
1680291146004560400,2.95356030273437,10.2087001800537,-6.10839986801147,5.07709980010986
1680291146014560300,2.96356030273437,10.0376996994018,-6.13269996643066,4.02670001983642
1680291146024560400,2.97356030273437,10.171799659729,-6.82609987258911,3.29320001602172
1680291146034561800,2.98356176757812,9.32069969177246,-7.25759983062744,2.19619989395141
1680291146044560400,2.99356030273437,9.31879997253418,-7.61929988861084,1.62369990348815
1680291146054560300,3.00356030273437,9.0019998550415,-8.09140014648437,1.1252999305725
1680291146064560400,3.01356030273437,8.85579967498779,-8.86439990997314,0.636399984359741
1680291146074564900,3.02356494140625,8.41650009155273,-10.0461997985839,-0.0258999988436698
1680291146084560400,3.03356030273437,8.70219993591308,-11.4091997146606,-0.814499974250793
1680291146094560300,3.04356030273437,9.14989948272705,-12.8071994781494,-1.36739993095397
1680291146104560400,3.05356030273437,9.00109958648681,-14.1106996536254,-1.66949999332427
1680291146114560300,3.06356030273437,8.99679946899414,-13.9382991790771,-1.66499996185302
1680291146124560400,3.07356030273437,8.76630020141601,-14.7309999465942,-1.36650002002716
1680291146134561800,3.08356176757812,8.4975996017456,-15.6577997207641,-0.682399988174438
1680291146144560400,3.09356030273437,7.95959997177124,-15.9090995788574,-0.371499985456466
1680291146154560300,3.10356030273437,7.29569959640502,-16.9503993988037,0.337399989366531
1680291146164560400,3.11356030273437,6.10509967803955,-16.9146003723144,0.727999985218048
1680291146174560300,3.12356030273437,5.13469982147216,-15.7942991256713,1.32429993152618
1680291146184560400,3.13356030273437,4.39979982376098,-15.4486999511718,1.82489991188049
1680291146194561800,3.14356176757812,4.76929998397827,-15.1800994873046,2.11310005187988
1680291146204565000,3.15356494140625,3.97339987754821,-14.834599494934,1.87000000476837
1680291146214560300,3.16356030273437,3.4640998840332,-15.1285991668701,1.44799995422363
1680291146224560400,3.17356030273437,3.32789993286132,-14.7786998748779,1.50239992141723
1680291146234560300,3.18356030273437,3.09999990463256,-14.4649991989135,1.63609993457794
1680291146244560400,3.19356030273437,2.40659999847412,-13.4460000991821,1.61829996109008
1680291146254560300,3.20356030273437,2.01579999923706,-12.1344995498657,1.29769992828369
1680291146264560400,3.21356030273437,1.78229999542236,-11.4654998779296,1.35089993476867
1680291146274561800,3.22356176757812,1.65559995174407,-10.8671998977661,0.808699965476989
1680291146284560400,3.23356030273437,1.61579990386962,-10.3794994354248,-0.0811999961733818
1680291146294561800,3.24356176757812,1.15160000324249,-9.964599609375,-0.853299975395202
1680291146304560400,3.25356030273437,0.746199965476989,-10.0015001296997,-1.98249995708465
1680291146314561800,3.26356176757812,-0.450800001621246,-9.98279953002929,-3.35019993782043
1680291146324560400,3.27356030273437,-1.3837000131607,-9.08689975738525,-3.89979982376098
1680291146334560300,3.28356030273437,-1.79109990596771,-8.76049995422363,-3.87150001525878
1680291146344568000,3.29356811523437,-2.25849986076355,-8.48089981079101,-3.47769999504089
1680291146354561800,3.30356176757812,-2.42729997634887,-8.769700050354,-3.17540001869201
1680291146364562000,3.31356201171875,-2.33579993247985,-9.49160003662109,-2.78769993782043
1680291146374561800,3.32356176757812,-2.12680006027221,-10.107099533081,-2.594899892807
1680291146384560400,3.33356030273437,-1.86409997940063,-10.5752992630004,-3.6579999923706
1680291146394560300,3.34356030273437,-1.92639994621276,-10.8072996139526,-5.22169971466064
1680291146404560400,3.35356030273437,-1.95439994335174,-10.5522994995117,-6.74569988250732
1680291146414560300,3.36356030273437,-1.24759995937347,-10.9336996078491,-8.06599998474121
1680291146424560400,3.37356030273437,-1.64019989967346,-11.797999382019,-8.11299991607666
1680291146434569700,3.38356982421875,-2.40229988098144,-14.3317995071411,-7.2748999595642
1680291146444560400,3.39356030273437,-4.46829986572265,-18.779800415039,-5.12260007858276
1680291146454560300,3.40356030273437,-9.76319980621337,-24.2490997314453,-5.59730005264282
1680291146464560400,3.41356030273437,-14.8808994293212,-27.9582996368408,-6.94980001449585
1680291146474561800,3.42356176757812,-12.584599494934,-28.2696990966796,-6.28079986572265
1680291146484560400,3.43356030273437,-12.6761999130249,-35.2738990783691,-2.63459992408752
1680291146494560300,3.44356030273437,-9.09049987792968,-36.2824974060058,-2.23259997367858
1680291146504560400,3.45356030273437,-5.70839977264404,-39.466999053955,-1.26989996433258
1680291146514560300,3.46356030273437,-2.84579992294311,-42.9512977600097,-2.9021999835968
1680291146524560400,3.47356030273437,0.334899991750717,-47.7535972595214,-4.20329999923706
1680291146534560300,3.48356030273437,4.06540012359619,-52.7328987121582,-3.45829987525939
1680291146544560400,3.49356030273437,7.94219970703125,-57.6200981140136,-0.966899991035461
1680291146554560300,3.50356030273437,12.4268999099731,-62.091697692871,3.76629996299743
1680291146564562000,3.51356201171875,8.75159931182861,-68.7249984741211,10.5190000534057
1680291146574561800,3.52356176757812,25.3696994781494,-64.3446960449218,14.6946001052856
1680291146584560400,3.53356030273437,34.6616973876953,-60.1256980895996,-0.784399986267089
1680291146594560300,3.54356030273437,35.1494979858398,-66.2109985351562,22.2165985107421
1680291146604560400,3.55356030273437,33.0484008789062,-60.0300979614257,23.393699645996
1680291146614564900,3.56356494140625,31.0391998291015,-64.7748947143554,20.0574989318847
1680291146624563500,3.5735634765625,31.7461986541748,-56.3410987854003,19.7458000183105
1680291146634560300,3.58356030273437,33.127197265625,-55.6105995178222,15.7541999816894
1680291146644560400,3.59356030273437,34.6912994384765,-47.9855003356933,10.4615001678466
1680291146654560300,3.60356030273437,25.884199142456,-42.9137992858886,7.05469989776611
1680291146664560400,3.61356030273437,24.071699142456,-39.2346000671386,4.09079980850219
1680291146674561800,3.62356176757812,22.4459991455078,-35.7966003417968,4.59170007705688
1680291146684562000,3.63356201171875,20.1833992004394,-30.537498474121,6.24489974975585
1680291146694561800,3.64356176757812,20.9757003784179,-25.1338996887207,8.33139991760253
1680291146704571100,3.65357104492187,20.2377986907959,-20.7964000701904,10.1035995483398
1680291146714561800,3.66356176757812,17.5513000488281,-17.1816997528076,8.06099987030029
1680291146724560400,3.67356030273437,16.4296989440917,-14.0848999023437,5.47029972076416
1680291146734560300,3.68356030273437,14.0120000839233,-13.1272001266479,3.34949994087219
1680291146744560400,3.69356030273437,15.2975997924804,-12.5397996902465,2.59969997406005
1680291146754560300,3.70356030273437,15.9874000549316,-12.8706998825073,3.26839995384216
1680291146764560400,3.71356030273437,16.9722995758056,-11.4961996078491,4.15289974212646
1680291146774560300,3.72356030273437,18.4601001739501,-8.6451997756958,4.36899995803833
1680291146784562000,3.73356201171875,16.975299835205,-7.61779975891113,3.83279991149902
1680291146794561800,3.74356176757812,15.4471998214721,-7.71549987792968,2.89549994468688
1680291146804568000,3.75356811523437,13.5225992202758,-7.81899976730346,1.67599999904632
1680291146814560300,3.76356030273437,12.0621995925903,-7.41999959945678,1.04559993743896
1680291146824560400,3.77356030273437,11.66219997406,-7.23539972305297,1.2882000207901
1680291146834561800,3.78356176757812,11.7034997940063,-6.93649959564209,1.94749999046325
1680291146844560400,3.79356030273437,12.8165998458862,-5.7632999420166,3.1252999305725
1680291146854560300,3.80356030273437,13.5389995574951,-4.32019996643066,3.90960001945495
1680291146864562000,3.81356201171875,12.7466993331909,-3.32949995994567,3.52239990234375
1680291146874561800,3.82356176757812,12.0315999984741,-2.9261999130249,2.9351999759674
1680291146884560400,3.83356030273437,11.1568994522094,-3.35469985008239,2.43639993667602
1680291146894564900,3.84356494140625,10.5071992874145,-4.17379999160766,2.06069993972778
1680291146904560400,3.85356030273437,9.60429954528808,-3.9854998588562,1.64789998531341
1680291146914561800,3.86356176757812,9.01149940490722,-3.03919982910156,1.34379994869232
1680291146924560400,3.87356030273437,8.07100009918212,-2.3866000175476,1.41629993915557
1680291146934561800,3.88356176757812,8.12689971923828,-1.40049993991851,1.87339997291564
1680291146944560400,3.89356030273437,8.10939979553222,-0.44209998846054,2.25670003890991
1680291146954560300,3.90356030273437,8.17169952392578,0.365599989891052,2.33449983596801
1680291146964560400,3.91356030273437,8.25039958953857,0.867999970912933,2.39119982719421
1680291146974560300,3.92356030273437,7.50379991531372,0.88809996843338,2.00559997558593
1680291146984560400,3.93356030273437,7.03459978103637,0.564300000667572,1.6362999677658
1680291146994560300,3.94356030273437,6.11639976501464,0.0626000016927719,1.34420001506805
1680291147004560400,3.95356030273437,5.19929981231689,-0.0775999948382377,1.11589992046356
1680291147014560300,3.96356030273437,5.29229974746704,-0.169399991631507,1.06059992313385
1680291147024563500,3.9735634765625,5.53219985961914,-0.260699987411499,1.21949994564056
1680291147034560300,3.98356030273437,5.19749975204467,-0.192800000309944,1.0540999174118
1680291147044560400,3.99356030273437,5.05900001525878,0.00630000000819563,0.84579998254776
1680291147054561800,4.00356176757812,4.40319967269897,-0.0357999987900257,0.618900001049041
1680291147064560400,4.01356030273437,3.83179998397827,-0.210899993777275,0.387999981641769
1680291147074560300,4.02356030273437,3.17019987106323,-0.215099990367889,0.285400003194808
1680291147084562000,4.03356201171875,2.40910005569458,-0.421299993991851,0.263199985027313
1680291147094561800,4.04356176757812,1.87360000610351,-0.662199974060058,0.261999994516372
1680291147104560400,4.05356030273437,1.97329998016357,-0.761299967765808,0.598199963569641
1680291147114561800,4.06356176757812,2.51119995117187,-0.629299998283386,0.989699959754943
1680291147124560400,4.07356030273437,2.93819999694824,-0.460899978876113,1.22549998760223
1680291147134561800,4.08356176757812,2.92249989509582,-0.314099997282028,1.22759997844696
1680291147144560400,4.09356030273437,2.55369997024536,-0.266499996185302,0.947899997234344
1680291147154560300,4.10356030273437,2.27239990234375,-0.0832999944686889,0.6317999958992
1680291147164569600,4.11356958007812,1.70639991760253,-0.00980000011622905,0.349299997091293
1680291147174560300,4.12356030273437,1.54170000553131,-0.311100006103515,0.19829998910427
1680291147184562000,4.13356201171875,1.27109992504119,-0.428499996662139,0.0297999996691942
1680291147194561800,4.14356176757812,1.17760002613067,-0.166099995374679,-0.13969999551773
1680291147204560400,4.15356030273437,1.22939991950988,0.0142000000923872,-0.226499989628791
1680291147214564900,4.16356494140625,1.27849996089935,0.0537000000476837,-0.135499998927116
1680291147224560400,4.17356030273437,1.11989998817443,0.177699998021125,-0.198100000619888
1680291147234560300,4.18356030273437,0.920599997043609,0.317799985408782,-0.218400001525878
1680291147244560400,4.19356030273437,0.581799983978271,0.441299974918365,-0.223799988627433
1680291147254564900,4.20356494140625,0.33619999885559,0.519199967384338,-0.24949999153614
1680291147264560400,4.21356030273437,0.187399998307228,0.580399990081787,-0.219499990344047
1680291147274560300,4.22356030273437,0.0705000013113021,0.815400004386901,-0.247499987483024
1680291147284562000,4.23356201171875,0.222999989986419,0.832499980926513,-0.239500001072883
1680291147294560300,4.24356030273437,0.145400002598762,0.642599999904632,-0.215299993753433
1680291147304571100,4.25357104492187,0.101599998772144,0.393700003623962,-0.280900001525878
1680291147314560300,4.26356030273437,-0.0351999998092651,0.33730000257492,-0.337999999523162
1680291147324560400,4.27356030273437,-0.316300004720687,0.340999990701675,-0.306099981069564
1680291147334560300,4.28356030273437,-0.475599974393844,0.354699999094009,-0.273000001907348
1680291147344563500,4.2935634765625,-0.571999967098236,0.256399989128112,-0.193599998950958
1680291147354560300,4.30356030273437,-0.569199979305267,0.284999996423721,-0.124399997293949
1680291147364560400,4.31356030273437,-0.462799996137619,0.418599992990493,-0.0741999968886375
1680291147374560300,4.32356030273437,-0.481199979782104,0.425099998712539,0.0516999997198581
1680291147384562000,4.33356201171875,-0.516299962997436,0.34520000219345,0.0167999994009733
1680291147394568200,4.34356811523437,-0.608099997043609,0.237999990582466,-0.0438000001013278
1680291147404560400,4.35356030273437,-0.834999978542327,0.113199993968009,-0.179700002074241
1680291147414560300,4.36356030273437,-0.931699991226196,0.108799993991851,-0.329999983310699
1680291147424560400,4.37356030273437,-1.04999995231628,0.152699992060661,-0.47020000219345
1680291147434560300,4.38356030273437,-0.976699948310852,0.273299992084503,-0.54909998178482
1680291147444566500,4.39356640625,-0.896999955177307,0.411899983882904,-0.444499999284744
1680291147454561800,4.40356176757812,-0.674799978733062,0.582499980926513,-0.301999986171722
1680291147464560400,4.41356030273437,-0.746499955654144,0.625599980354309,-0.0241999998688697
1680291147474560300,4.42356030273437,-0.64819997549057,0.499799996614456,0.12109999358654
1680291147484562000,4.43356201171875,-0.540899991989135,0.455099999904632,0.179499998688697
1680291147494560300,4.44356030273437,-0.53899997472763,0.659500002861023,0.0788000002503395
1680291147504560400,4.45356030273437,-0.506399989128112,0.702299952507019,-0.0781999975442886
1680291147514560300,4.46356030273437,-0.276399999856948,0.504700005054473,-0.202799990773201
1680291147524562000,4.47356201171875,-0.278999984264373,0.409799993038177,-0.39530000090599
1680291147534561800,4.48356176757812,-0.247699990868568,0.575100004673004,-0.500899970531463
