time,seconds_elapsed,z,y,x
1680290586497588000,0.023587890625,0.38049101696014404,-0.13265256668925285,-0.0788280375212431
1680290586507646700,0.033646728515625,0.2766208926409483,-0.06690379097163676,0.014245492571406065
1680290586517706000,0.0437060546875,0.30292496219873427,-0.014758593192696571,0.04738806637972593
1680290586527764700,0.0537646484375,0.3937029652327299,-0.039275194811820985,0.04407612882014364
1680290586537824000,0.063823974609375,0.5137181686669587,-0.026934184154868125,0.040049686315655704
1680290586547882800,0.0738828125,0.6703548375338315,0.022846038058400152,0.0026624606749042867
1680290586557942000,0.08394189453125,0.8163613913148641,0.08292085979282855,-0.11392817513812332
1680290586568000800,0.094000732421875,0.9839689515292644,0.19956337192356585,-0.22857640817910432
1680290586578060000,0.10406005859375,1.1782675347924232,0.2563853293418884,-0.367128262040019
1680290586588118800,0.114118896484375,1.3883207365483046,0.3492679034397006,-0.4430884890399873
1680290586598177800,0.124177734375,1.6660276708602904,0.37668840980678797,-0.5548603263944387
1680290586608236800,0.13423681640625,2.1089614077299834,0.6024754795283079,-0.7417337280929088
1680290586618295800,0.1442958984375,2.4927064580500122,0.6682055505454539,-0.947746933742985
1680290586628355000,0.15435498046875,2.6894378214180468,0.6810343447193503,-1.0428289175812155
1680290586638413800,0.164413818359375,2.9895956569910047,0.8900397909879684,-1.0853200056996195
1680290586648473000,0.17447314453125,3.1209552612602707,1.1000111596792936,-1.1068697203371674
1680290586658531800,0.18453173828125,3.0940415353715416,1.2536118218511343,-1.1462957948617636
1680290586668591000,0.194591064453125,3.153525989997387,1.4512866035491228,-1.159216797363758
1680290586678649900,0.20464990234375,3.291939019909501,1.7066738617643713,-1.210377294954285
1680290586688709000,0.214709228515625,3.5105051984667774,1.9736352379173039,-1.2783723152287303
1680290586698768000,0.224767822265625,3.7558003939956426,2.189141736643016,-1.3493020007155836
1680290586708826600,0.23482666015625,4.000124698665738,2.3381793286830184,-1.4269794068969786
1680290586718885600,0.2448857421875,4.241109045258164,2.473926938778162,-1.6264219289198516
1680290586728944600,0.254944580078125,4.471318899857998,2.6250620876193045,-1.926333096255362
1680290586739003600,0.265003662109375,4.568371745377779,2.876363537825644,-2.042925924025476
1680290586749062700,0.275062744140625,4.308372901713848,3.1944448603630065,-1.9319955059312284
1680290586759121700,0.28512158203125,3.8090591059744354,3.416470823985338,-1.555146206474304
1680290586769180400,0.295180419921875,3.5203678363114594,3.486283488141,-1.070927030948922
1680290586779239700,0.30523974609375,3.4414123730182644,3.6453999911248682,-0.7932033646978437
1680290586789298400,0.31529833984375,3.5061101783782243,3.7907913356170058,-0.6053267042409628
1680290586799357700,0.325357666015625,3.6564994772881265,3.81991455424875,-0.30025165133625265
1680290586809416400,0.33541650390625,3.847796540647745,3.904264862322807,-0.08637859903126954
1680290586819475700,0.345475830078125,4.05105409091413,3.9923125636100765,0.0020260990001261235
1680290586829534500,0.355534423828125,3.968287544900179,3.915883988445997,-0.1653152114935219
1680290586839593700,0.36559375,3.6284628848493097,3.80144220122993,-0.3130043115340173
1680290586849652500,0.375652587890625,3.2591490954637528,3.7631034104853867,-0.4189547492586076
1680290586859711700,0.385711669921875,3.03201499504745,3.578944528442621,-0.5005959445044398
1680290586869770500,0.3957705078125,2.687943198946118,3.4856948745980856,-0.26610548997595906
1680290586879829800,0.405829833984375,2.2378923235476016,3.5187612778976556,-0.12222528069913387
1680290586889888500,0.415888427734375,1.8258710268139837,3.640847734647989,-0.3517082823291421
1680290586899947500,0.425947509765625,1.0065724130034446,3.6986660096272823,-0.6725738287575542
1680290586910006500,0.436006591796875,-0.22013269722163675,3.293547624149918,-0.763511990789324
1680290586920065500,0.4460654296875,-1.2752882316082714,2.78361423471868,-0.43926089357584713
1680290586930124500,0.45612451171875,-2.4872592985600233,2.7582611822754144,-0.13698328936994075
1680290586940183600,0.46618359375,-3.4313843154788017,2.886576596543193,-0.2170943524390459
1680290586950242600,0.47624267578125,-3.912468627044558,2.5951602858304974,-0.1386383631005883
1680290586960301600,0.486301513671875,-4.1842590307891365,2.0940957009010015,-0.4939481770530343
1680290586970360600,0.496360595703125,-4.424904939207434,1.9096271683871744,-1.3188105624705553
1680290586980419600,0.506419677734375,-4.690223516589403,1.908223731330037,-1.457755507302284
1680290586990478600,0.516478515625,-4.765144609799981,1.9067206332907078,-1.2512114827111362
1680290587000537600,0.52653759765625,-5.00455659250915,1.7458128629758953,-0.9945166490286588
1680290587010596600,0.5365966796875,-5.458180650219321,1.429174432723224,-0.9645657474011182
1680290587020655600,0.546655517578125,-5.526663819336891,1.14936584995687,-1.0978478441655635
1680290587030714600,0.556714599609375,-5.44846472736895,1.0475471052095293,-1.071858247384429
1680290587040773600,0.566773681640625,-5.3412663354098795,0.9652510993167758,-1.0419392021998763
1680290587050832400,0.576832275390625,-5.0703018610954285,0.8520502520725131,-0.994316742542386
1680290587060891600,0.5868916015625,-5.10052924157679,0.5501803518846631,-0.9746621940016746
1680290587070950400,0.596950439453125,-5.274802689421176,0.1526315248787403,-1.2397674208939076
1680290587081009700,0.607009765625,-5.160290175056457,0.010217442631721496,-1.6322300306767223
1680290587091068400,0.617068359375,-4.9818777277112005,0.11175181747972965,-1.8812413241192698
1680290587101127700,0.627127685546875,-4.892015670478344,0.128763742557168,-1.0763447451487183
1680290587111186400,0.6371865234375,-4.791797638925909,0.23635785583555696,-0.4856245853438973
1680290587121245700,0.64724560546875,-4.794862287193537,0.09976970326304435,-0.5703852277845144
1680290587131304400,0.657304443359375,-4.522779037982225,-0.24822891089320182,-0.7609472548678516
1680290587141363700,0.66736376953125,-4.104866345122456,-0.3596861293405294,-0.891633197659254
1680290587151422500,0.67742236328125,-3.8912557431459422,-0.3370464275091886,-0.770036862513423
1680290587161481700,0.687481689453125,-3.952495517006516,-0.5706856720358133,-0.6164169111192226
1680290587171540500,0.69754052734375,-4.126382011359929,-0.8022744137734175,-0.7225313072338699
1680290587181599700,0.707599853515625,-4.059434381246566,-0.7690735704392194,-0.8451566931664943
1680290587191658800,0.71765869140625,-3.7936318197399377,-0.6793634888976812,-0.7925336487427354
1680290587201717500,0.727717529296875,-3.5339281596302983,-0.9664479078859091,-0.6125859546542167
1680290587211776800,0.73777685546875,-3.28144100677073,-1.07014033755064,-0.5343436080664395
1680290587221835500,0.74783544921875,-3.1299206580042838,-0.9255237768232822,-0.446613009904325
1680290587231894800,0.757894775390625,-2.968882539308071,-1.0531085387289523,-0.31674598228037354
1680290587241953500,0.76795361328125,-2.7335622098267076,-1.082451537591219,-0.25015841765105723
1680290587252012800,0.7780126953125,-2.5334850431621074,-0.9367840065062045,-0.27417817566394803
1680290587262071600,0.788071533203125,-2.416903905829787,-0.8659002059876918,-0.3094949882388115
1680290587272130800,0.798130859375,-2.3029788359642027,-0.8976537731230259,-0.30994448557198045
1680290587282189600,0.808189453125,-2.148514834961295,-0.8578115920782089,-0.35293197890520095
1680290587292248800,0.818248779296875,-1.9678022939801214,-0.7353647775828838,-0.34383915638923646
1680290587302307600,0.8283076171875,-1.8387702558755874,-0.6978560079216957,-0.2635749485850334
1680290587312366800,0.838366943359375,-1.6934546069681644,-0.7448924843847751,-0.158663498519361
1680290587322425600,0.848425537109375,-1.540273046991229,-0.6743874540507793,-0.02664718390703201
1680290587332484600,0.858484619140625,-1.3908552234619855,-0.5736000981777906,0.05108808994144201
1680290587342543600,0.868543701171875,-1.1979524784713982,-0.5721370398879051,0.10723170970678329
1680290587352602600,0.8786025390625,-1.0272358463257552,-0.52908349558115,0.1150850535556674
1680290587362661600,0.88866162109375,-0.862990456020832,-0.4691524662315845,0.07580079865455627
1680290587372720600,0.898720703125,-0.6975701767176389,-0.3970487685292959,-0.027710429224371908
1680290587382779600,0.908779541015625,-0.5697124430894851,-0.26072715793848034,-0.11492138742655515
1680290587392838700,0.918838623046875,-0.5143856926649809,-0.2838303856283426,-0.11902853048443794
1680290587402897700,0.928897705078125,-0.3991010248839855,-0.3323527167350054,-0.09003039953708648
1680290587412956700,0.938956787109375,-0.3432043656170368,-0.1326934832215309,-0.05089665902256965
1680290587423015700,0.949015625,-0.30888474738597865,-0.12974983098506926,0.06850947260260581
1680290587433075700,0.95907568359375,-0.24611878687143324,-0.19315058227181434,0.21396423771977424
1680290587443133700,0.9691337890625,-0.21412322767376898,-0.12771218767762182,0.31534663687646386
1680290587453192700,0.979192626953125,-0.23224866695106028,-0.09301847543716431,0.40703970892876384
1680290587463252500,0.98925244140625,-0.2504220370233059,-0.07000935577154159,0.4540741395652294
1680290587473311700,0.999311767578125,-0.3052934448957443,0.03884615574479103,0.39113399152755735
1680290587483370500,1.00937060546875,-0.38832711741328235,-0.07515139483511447,0.40882337747514247
1680290587493428700,1.0194287109375,-0.5237222608089447,-0.20771628324091435,0.4652043131276965
1680290587503488500,1.029488525390625,-0.7474848389655351,-0.2859761654853821,0.38336101943850515
1680290587513547800,1.0395478515625,-1.0446019916683436,-0.40607086389660835,0.26267887652814387
1680290587523606500,1.0496064453125,-1.2935153776943682,-0.6038958677202463,0.16405366712510586
1680290587533665500,1.05966552734375,-1.514155439916253,-0.7602975587874651,0.007737023992836475
1680290587543724500,1.069724609375,-1.7767197501540184,-0.8887064965575933,-0.3737389123514294
1680290587553783600,1.079783447265625,-2.0892776330947873,-1.1340537145346403,-0.7085431138917804
1680290587563842600,1.089842529296875,-2.5623767911255357,-1.2391057421147822,-0.8948220568284392
1680290587573901600,1.099901611328125,-3.287517111814022,-1.6761907529562712,-0.9822571791753172
1680290587583960600,1.109960693359375,-3.738076521256566,-2.0394033028572798,-0.9401952762544155
1680290587594019600,1.12001953125,-4.510374898961186,-1.9081535887032746,-0.9256067789316177
1680290587604078600,1.13007861328125,-5.284679940313101,-2.3463433459162713,-1.0859776658907532
1680290587614137600,1.1401376953125,-5.667127936559916,-2.649095289635658,-1.2215075415819883
1680290587624196600,1.150196533203125,-6.504751311612129,-2.6674855173289775,-1.365234459993243
1680290587634255600,1.160255615234375,-7.222382864105701,-3.323632381290197,-1.684273813907802
1680290587644314600,1.170314697265625,-7.661001075863838,-3.2957612085461614,-2.1865940979868173
1680290587654373600,1.18037353515625,-7.961544695883989,-3.110316962867975,-2.6560809107393024
1680290587664432600,1.1904326171875,-8.338842469760776,-3.317838600319624,-3.2958447951763867
1680290587674491600,1.20049169921875,-8.592691558623313,-3.237802940574288,-3.7339661633282897
1680290587684550400,1.21055029296875,-9.23683585010171,-2.9011937354385853,-3.7504213313058017
1680290587694609700,1.220609619140625,-10.203839638304709,-2.593802149219811,-3.421756070911884
1680290587704668400,1.23066845703125,-11.222537373387812,-1.9312261289939283,-3.0575831515461203
1680290587714728400,1.240728515625,-11.693747356671095,-1.8835548617586493,-2.593197169063985
1680290587724787200,1.250787109375,-11.880267122626304,-1.5726608203768728,-2.291062188199162
1680290587734846500,1.260846435546875,-12.178646842610835,-0.7211641105338931,-2.1899909008182585
1680290587744905200,1.2709052734375,-12.597247517734765,-0.08988193097710609,-2.3436042763411997
1680290587754964200,1.280964111328125,-13.090019344484805,0.5250222374916076,-2.5984800779029724
1680290587765023200,1.291023193359375,-13.229030340290068,1.013349359792471,-2.8888392807781695
1680290587775082200,1.301082275390625,-13.024337788784504,1.5469424417525528,-3.1557512648314234
1680290587785141200,1.311141357421875,-12.56928048340082,2.188985377037525,-3.283546162356436
1680290587795200300,1.3212001953125,-12.353467987465859,3.1256478029906747,-3.259370629259944
1680290587805259300,1.33125927734375,-12.580150252461433,3.9029756992951032,-3.147128982436657
1680290587815318300,1.341318359375,-12.807597072088718,4.768976150786877,-2.8723493337482213
1680290587825377300,1.351377197265625,-12.819582108914851,5.487884299087524,-2.497141810148954
1680290587835436300,1.361436279296875,-12.652593557381628,6.461559235617518,-2.3719132559806106
1680290587845495300,1.371495361328125,-12.302639132982492,7.656918774986266,-2.3724136067181822
1680290587855554300,1.38155419921875,-12.140557058191298,8.766981373080611,-2.6800276035159825
1680290587865613300,1.39161328125,-12.12326573165059,9.81153309586644,-3.1294530404925345
1680290587875672300,1.40167236328125,-12.060643563520907,10.723100828051566,-3.6056729608923193
1680290587885731300,1.4117314453125,-11.472383071827888,11.144225468695163,-4.041526384112239
1680290587895790300,1.421790283203125,-10.530299789869785,12.082032388508319,-4.4552527311980725
1680290587905849300,1.431849365234375,-9.969486108028889,12.56404316726923,-4.76157405783683
1680290587915908400,1.441908447265625,-9.776467043182253,13.104155421864986,-5.128688583612441
1680290587925967000,1.451967041015625,-9.411105790814757,14.03694948195219,-5.556470928579569
1680290587936026400,1.4620263671875,-9.269334098124503,14.409722471880912,-5.424148032236099
1680290587946085000,1.472085205078125,-9.333639104774594,14.173566276097297,-5.243164857620001
1680290587956144400,1.482144287109375,-9.303466669350861,14.335110590749979,-5.156999316817521
1680290587966203100,1.492203125,-8.905632303401827,14.504839380902052,-4.625426634769141
1680290587976262400,1.502262451171875,-8.775122009438276,14.426797525322437,-4.021673682650923
1680290587986321200,1.512321044921875,-8.701451793071627,14.563539407151938,-3.283174990956485
1680290587996380400,1.52238037109375,-8.300462762483955,14.220956972825526,-2.898281062862277
1680290588006439200,1.532439208984375,-8.453037588739395,13.446273745810984,-3.626256022454798
1680290588016498400,1.54249853515625,-8.451407941710949,13.128109128904342,-4.1019168476670975
1680290588026557200,1.55255712890625,-7.907956313559413,12.768838594627379,-4.201469108787179
1680290588036616400,1.562616455078125,-7.687080104494094,12.3860258567214,-3.432351406945288
1680290588046675200,1.57267529296875,-7.870487291386723,12.155427295064925,-2.3408836192056537
1680290588056734200,1.582734130859375,-8.212398110061883,11.789081707835196,-2.0761824430696665
1680290588066793200,1.592793212890625,-7.729796379670501,11.424749213993548,-1.7659866130851207
1680290588076852200,1.602852294921875,-6.820788268840313,11.090365283691883,-1.0435855081021785
1680290588086911200,1.6129111328125,-6.42138212352991,10.706591591799258,-0.8200526470482349
1680290588096970200,1.62297021484375,-6.318241482529044,10.287751262700557,-0.987095266856253
1680290588107029200,1.633029296875,-5.750376128610968,10.19884080710411,-0.994928444699943
1680290588117088300,1.643088134765625,-5.111749139249325,9.903339272904395,-0.7760846182450651
1680290588127147300,1.653147216796875,-4.728626020219922,9.60086497708261,-0.5830675992250443
1680290588137206300,1.663206298828125,-4.356844963937998,9.242983266815543,-0.3793398010984063
1680290588147265300,1.673265380859375,-4.267176967972516,8.761598510998487,0.1802589519947767
1680290588157324300,1.68332421875,-4.101145863294601,8.129884662026166,0.3434776296004653
1680290588167383300,1.69338330078125,-3.229727770668268,7.9214102538943285,0.20700492010116575
1680290588177442300,1.7034423828125,-2.3912112461686132,7.829287850514054,0.546642533147335
1680290588187501300,1.713501220703125,-2.079777983343601,7.4315236271917815,0.7013222227275371
1680290588197560300,1.723560302734375,-1.692955425274372,7.245739189773798,0.3918701968476176
1680290588207619000,1.733619140625,-1.2541758854746818,7.117313300868869,0.1578876918412745
1680290588217678300,1.74367822265625,-0.843818138039112,6.914805107665061,0.1445845581538975
1680290588227737000,1.753737060546875,-0.4927461077868938,6.947199310791492,0.34997093714252114
1680290588237796400,1.76379638671875,-0.2995376578480005,6.995844391494989,0.494484914278239
1680290588247855000,1.773855224609375,0.42641807087659833,7.050269224643706,0.7920851743228733
1680290588257914400,1.783914306640625,1.2673100923359393,7.2315908374339335,1.291299309080094
1680290588267973000,1.79397314453125,1.777123070257902,7.150050618344545,1.5678073889963329
1680290588278032400,1.804032470703125,1.80875739492774,7.352665194532275,1.432810597268492
1680290588288091100,1.814091064453125,2.1563749008119104,8.13905347238779,1.3623971907407044
1680290588298150400,1.824150390625,2.940599863153696,8.763114176258444,1.6882387720160186
1680290588308209200,1.834209228515625,3.4085528904676434,9.811485165071486,2.3268252832368015
1680290588318268400,1.844268310546875,3.9781905147552488,10.520082347238063,3.047351095867157
1680290588328327200,1.8543271484375,4.797210311624408,10.55442534634471,3.408141387057304
1680290588338386200,1.86438623046875,5.3326083971798415,10.64591938869357,3.4014702387303113
1680290588348445200,1.874445068359375,5.167538831010461,10.223151072496176,3.3813796368598936
1680290588358504200,1.884504150390625,4.931809920728206,10.110698413270711,3.378016297906637
1680290588368563200,1.894563232421875,4.895357966643571,10.64838256393671,3.436967376308143
1680290588378622200,1.904622314453125,4.7868794717460865,12.59354632512927,3.4408085619062185
1680290588388681200,1.91468115234375,5.8717561906576154,15.507529399514198,3.393527463032305
1680290588398740200,1.924740234375,7.711563388365507,18.05752952414751,3.285057443702221
1680290588408799200,1.93479931640625,7.8304329288959496,19.31543465927839,3.277614141958952
1680290588418858200,1.944858154296875,6.741619455057382,20.421113927721976,2.301212118552625
1680290588428917200,1.954917236328125,6.864890445417165,21.318443875718117,1.2322446241736411
1680290588438976300,1.964976318359375,7.166710661244392,23.042570684325693,-0.18163411280550062
1680290588449035300,1.97503515625,7.722092965686321,24.412711036539076,-1.3126795123696327
1680290588459094300,1.98509423828125,7.99787214680612,24.884988356792924,-2.833998268043995
1680290588469153300,1.9951533203125,7.058678156548738,24.561018268477916,-5.052827579203248
1680290588479212300,2.00521240234375,4.024873939996958,23.38056695990562,-7.511046661239862
1680290588489271000,2.01527099609375,2.027472042044997,22.275642893743512,-8.951691459265351
1680290588499330300,2.025330322265625,-2.3823650918900965,20.418245094287393,-9.986014048981666
1680290588509389000,2.03538916015625,-8.069868877002596,19.54399557762742,-10.390729991137981
1680290588519448300,2.0454482421875,-13.548376860457658,18.58918491604328,-9.649509473264217
1680290588529507000,2.055507080078125,-15.308987187331914,18.307091144949197,-8.90042362884283
1680290588539566300,2.06556640625,-16.00976931183338,20.087157867443562,-7.289332832306623
1680290588549625000,2.075625,-24.759807148897647,21.778523393177984,-7.41830408013463
1680290588559684400,2.085684326171875,-22.864001585114,24.701829591703415,-8.844868330359459
1680290588569743000,2.0957431640625,-26.13960380272865,21.904817530751227,-14.933143119394778
1680290588579802400,2.10580224609375,-24.176482360041142,19.83465142536163,-17.70288021993041
1680290588589861000,2.115861083984375,-26.509914786458015,13.479900121080874,-20.656437764334676
1680290588599920400,2.12592041015625,-21.028245124101637,8.493500532031058,-20.25137578521967
1680290588609979100,2.135979248046875,-20.760781935906408,4.890997433346509,-18.457078292798993
1680290588620038100,2.1460380859375,-18.108041567766666,2.124851635301113,-13.038681955957411
1680290588630097200,2.15609716796875,-16.249781014001368,3.5521523831069466,-8.251359416618943
1680290588640156200,2.16615625,-17.957970248764752,1.9980624076873064,-4.431915110230445
1680290588650215200,2.176215087890625,-17.347043167233466,0.6164864692240953,-1.778240091589093
1680290588660274200,2.186274169921875,-16.240499975436926,-0.1752671350568533,-1.8885154067754744
1680290588670333200,2.196333251953125,-13.234948039901255,-0.8936182339966297,-3.448054295250773
1680290588680392200,2.20639208984375,-10.003252768552302,-0.6446726992666721,-5.75098753850758
1680290588690451200,2.216451171875,-8.232862221419811,-1.0692723225444554,-6.826990046089887
1680290588700510200,2.22651025390625,-6.621696021559834,-2.250610935345292,-6.2862827482104295
1680290588710569200,2.2365693359375,-5.820172718414664,-2.657314836448431,-5.323996636179089
1680290588720628200,2.246628173828125,-5.563427323588728,-3.3835838689059017,-4.558237889376282
1680290588730687200,2.256687255859375,-4.5257571770101785,-3.1056676757574078,-4.147839225408434
1680290588740746200,2.266746337890625,-4.23360086158514,-2.1753455587416886,-3.872558056938648
1680290588750805200,2.27680517578125,-3.838074188056588,-2.171900386723876,-3.0793381794974204
1680290588760864300,2.2868642578125,-3.4436510918557643,-1.76151692032516,-1.5752356393009423
1680290588770923300,2.29692333984375,-3.573898350968957,-1.4664625453710556,-0.7408920165717602
1680290588780982300,2.306982177734375,-3.2674820395231245,-2.4224457578659058,-2.6167384959101674
1680290588791041000,2.317041015625,-2.4968004493653773,-2.9012714768499133,-3.707551911394298
1680290588801100300,2.327100341796875,-2.2563433415174483,-2.8418320304095745,-4.050378383609652
1680290588811159000,2.337158935546875,-2.2560849828422067,-2.3641069661438463,-3.5948166358351705
1680290588821218300,2.34721826171875,-1.9210691843777894,-1.7972516660511493,-2.6596096693873403
1680290588831277000,2.357277099609375,-1.8334224651068447,-1.444717746552825,-2.1633426939979192
1680290588841336300,2.36733642578125,-1.7684259690612554,-1.3536965824127196,-2.2771295244365928
1680290588851395000,2.37739501953125,-1.1560299840211867,-1.4916624530792235,-2.0155369818404316
1680290588861454300,2.387454345703125,-0.6810667856842278,-1.2828285639852284,-1.6718392797484993
1680290588871513000,2.39751318359375,-0.6308072555214166,-1.0711603282481432,-1.8194696353390811
1680290588881572400,2.407572265625,-0.1648486168950796,-0.7759978167444467,-1.951413469237089
1680290588891631000,2.417631103515625,-0.008009703454375267,-0.4868558807045221,-1.8636808252483605
1680290588901690400,2.4276904296875,-0.2131990985661745,-0.5992705460071563,-1.9044933126300572
1680290588911749000,2.4377490234375,0.025996026521921158,-0.555199349090457,-1.869042060020566
1680290588921808100,2.44780810546875,0.23170213898420333,-0.15834990252554415,-1.5059350163206457
1680290588931867100,2.4578671875,-0.03151040602922439,-0.10425006354749203,-1.155470012050867
1680290588941926100,2.467926025390625,0.00015489830076694487,-0.04885200145244598,-0.6949854209214449
1680290588951985400,2.4779853515625,0.11801496952772139,0.19108605095744133,-0.3159638919919729
1680290588962044200,2.488044189453125,-0.0036298809349536894,0.33977088403701783,-0.13452888195514678
1680290588972103400,2.498103515625,-0.05943710835278034,0.4128554094702005,-0.16998188813030718
1680290588982162200,2.508162109375,-0.003114332628250122,0.3823369370877743,-0.07276303839385509
1680290588992221400,2.518221435546875,0.001743044275045395,0.34861879188120365,0.036890345501899714
1680290589002280200,2.5282802734375,0.1264461132645607,0.4667670323997736,0.06241729320734739
1680290589012339500,2.53833935546875,0.26969547729194165,0.46987961146235463,0.28023031530976295
1680290589022398200,2.548398193359375,0.32770401414632794,0.3882604819178581,0.46680181145220995
1680290589032457500,2.55845751953125,0.43916298615932464,0.42376667958498,0.5344429767876863
1680290589042516200,2.56851611328125,0.3318044352024793,0.3796902219712734,0.5873255489304662
1680290589052575200,2.5785751953125,0.20210662666559218,0.1485539001762867,0.5098445421040058
1680290589062634200,2.58863427734375,0.18413082499206065,0.19745032529234885,0.33798224705457686
1680290589072693200,2.598693359375,0.31199265027344225,0.22253917384147642,0.3125000152736902
1680290589082752300,2.608752197265625,0.392580098682642,0.3330482977837324,0.23343875351846216
1680290589092811300,2.618811279296875,0.5788514428347349,0.4112216707885265,0.10287029962688683
1680290589102870300,2.628870361328125,0.7643804441869259,0.2440156771123409,0.2272942594140768
1680290589112929300,2.63892919921875,0.7612672806024551,0.15110358465909957,0.22875497961640356
1680290589122988300,2.64898828125,0.7357499775081873,0.1972656163752079,0.18195085060447452
1680290589133047300,2.65904736328125,0.5503168377459049,0.10409399620294571,0.22550299208313226
1680290589143106300,2.669106201171875,0.42628655345141886,0.06683773999810218,0.20358254443705082
1680290589153165300,2.679165283203125,0.42114802151918407,0.1634060168713331,0.27203765650391576
1680290589163224300,2.689224365234375,0.2965998508304357,0.1494417889267206,0.31824469640552994
1680290589173283300,2.699283447265625,0.366316945657134,0.06289689341783523,0.23088731546998023
1680290589183342300,2.70934228515625,0.42307635923326015,0.0998942064255476,0.28890725050121546
1680290589193401300,2.7194013671875,0.2529401573240757,0.05022679693698883,0.3404974447458982
1680290589203460000,2.729460205078125,0.16808686816394328,0.03426233508586883,0.20765286261588334
1680290589213519400,2.739519287109375,0.08292553596794605,0.08224515248835086,0.24497370848953723
1680290589223578000,2.749578125,-0.1757937892794609,0.07924246354103089,0.27499036882966754
1680290589233637400,2.759637451171875,-0.304482713034749,0.0012824410259723662,0.2610901460319757
1680290589243696000,2.769696044921875,-0.20148001919984818,-0.10885492699444294,0.38347850833833214
1680290589253755400,2.77975537109375,-0.059734045472741124,-0.1053536408752203,0.4209562983393669
1680290589263814100,2.789814208984375,0.010341361272335052,-0.13858312578201293,0.3643257718399167
1680290589273873400,2.799873291015625,-0.101187753367424,-0.08938800998032093,0.4764689267247915
1680290589283932200,2.80993212890625,-0.37478725236058236,-0.0658393766105175,0.5299652468517423
1680290589293991400,2.819991455078125,-0.5189730204552412,0.04563420844972133,0.4506523484230041
1680290589304050200,2.83005029296875,-0.5306757332086562,0.024821722045540808,0.4415221165060997
1680290589314109400,2.840109375,-0.4177835135221481,-0.04903554132580757,0.3436059321552515
1680290589324168200,2.850168212890625,-0.26409225045740603,-0.03486030097901821,0.2700800926953554
1680290589334227200,2.860227294921875,-0.25703239507377146,-0.07171849777698516,0.30314035851508375
1680290589344286200,2.8702861328125,-0.3115297089368105,-0.0385860435038805,0.28463892553225156
1680290589354345200,2.88034521484375,-0.3001438070476055,-0.0458668481618166,0.19651669770404695
1680290589364404200,2.890404296875,-0.30001521223187444,0.016886837393045424,0.07027458257898687
1680290589374463200,2.900463134765625,-0.18773440244197845,0.11643091520667076,-0.004428337836265564
1680290589384522200,2.910522216796875,-0.09333762438893317,0.12790332633554935,0.09391191714555025
1680290589394581200,2.920581298828125,-0.07437982594072819,-0.01640636039972305,0.2909957472130656
1680290589404640300,2.93064013671875,0.08198562476933002,-0.12900515009760855,0.2837237103834748
1680290589414699300,2.94069921875,-0.03639057928621769,-0.09519406591057777,0.2240038395665586
1680290589424758300,2.95075830078125,-0.17968378245532513,-0.18053543084859847,0.1403650407627225
1680290589434817300,2.9608173828125,-0.11181669940948485,-0.07813362551629544,0.02259820077717304
1680290589444876300,2.970876220703125,0.019314941322803498,-0.028577275186777114,-0.01213087503761053
1680290589454935300,2.980935302734375,0.02811901002526283,-0.15350596962571142,0.012468436428904533
1680290589464994300,2.990994384765625,0.035167759492993354,-0.158238258844614,0.0968333575502038
1680290589475053300,3.00105322265625,-0.035059038421511646,-0.19029694640636444,0.12382029480561613
1680290589485112000,3.011112060546875,-0.018995207849144935,-0.25104046118259427,0.12148016142025589
1680290589495171300,3.02117138671875,-0.2308744559884071,-0.07337094115912914,0.18238515036851166
1680290589505230000,3.03122998046875,-0.3193675629556179,-0.10430851573646067,0.23614552825912832
1680290589515289300,3.041289306640625,-0.22767478316426276,-0.15345394717752933,0.24162293675690888
