time,seconds_elapsed,z,y,x
1.68029E+18,0.827785156,-5.384754764,5.708486952,0.381207933
1.68029E+18,0.837860107,-5.003437818,5.950107258,0.589551116
1.68029E+18,0.847935059,-4.261134765,6.262677416,0.867904239
1.68029E+18,0.85801001,-3.712002169,6.348751772,1.10472942
1.68029E+18,0.868086182,-3.412114382,6.345291402,1.277546532
1.68029E+18,0.878161133,-3.399557683,6.437877331,1.515862244
1.68029E+18,0.888236084,-3.966884108,6.546749209,1.79042182
1.68029E+18,0.898311035,-4.839420391,6.587339578,2.181486253
1.68029E+18,0.90838623,-5.347663927,6.528835952,2.522051503
1.68029E+18,0.918461182,-5.437863254,6.366205595,2.744780354
1.68029E+18,0.928537109,-5.499360802,6.339530354,2.853522468
1.68029E+18,0.938612061,-5.542148973,6.446167021,2.828942738
1.68029E+18,0.948687012,-5.473210462,6.550402471,2.674146144
1.68029E+18,0.958762207,-5.347890722,6.649943042,2.464063716
1.68029E+18,0.968837158,-5.3328311,6.71824384,2.293656881
1.68029E+18,0.978912109,-5.822469889,7.085709956,2.098585267
1.68029E+18,0.988988037,-6.089198334,7.137455925,2.119695568
1.68029E+18,0.999062988,-5.913148524,6.993576447,2.343602523
1.68029E+18,1.009138184,-5.662297448,6.861551656,2.59062878
1.68029E+18,1.019213135,-5.571966019,6.656592563,2.713793972
1.68029E+18,1.029288086,-5.667421951,6.566690758,2.806820046
1.68029E+18,1.039363281,-6.320472603,6.752433695,2.774115169
1.68029E+18,1.049439209,-6.78910426,6.709898621,2.681636792
1.68029E+18,1.05951416,-6.98666506,6.820897574,2.736458224
1.68029E+18,1.069589111,-7.202993104,7.249301851,2.953556668
1.68029E+18,1.079664307,-7.63439247,7.577681572,3.15168913
1.68029E+18,1.089739258,-7.578314609,7.786539427,3.289073694
1.68029E+18,1.099813965,-7.155019054,8.010219587,3.467759989
1.68029E+18,1.109890137,-6.726213796,8.137121628,3.705046358
1.68029E+18,1.119965088,-6.317282282,8.187487541,3.830521873
1.68029E+18,1.130040283,-5.946192715,8.311179387,3.903832608
1.68029E+18,1.140115234,-5.556939715,8.410798868,3.979184202
1.68029E+18,1.150189941,-4.979679925,8.336570433,4.02190866
1.68029E+18,1.160265137,-4.521938203,8.417343175,3.984688645
1.68029E+18,1.170341064,-4.267416914,8.356434241,4.083864474
1.68029E+18,1.18041626,-3.995678241,7.912219816,4.12360261
1.68029E+18,1.190491211,-4.187446429,7.870604196,3.949737743
1.68029E+18,1.200565918,-4.41715301,8.118142202,3.864138896
1.68029E+18,1.210641113,-4.575438615,8.054447436,3.591206044
1.68029E+18,1.220716309,-4.813426118,8.008902659,3.373005776
1.68029E+18,1.230792236,-4.738710776,7.807049131,3.387483799
1.68029E+18,1.240867188,-4.227585547,7.311026193,3.589718436
1.68029E+18,1.250942139,-3.242362796,7.110147063,3.750608963
1.68029E+18,1.26101709,-2.564445999,7.062779747,3.57442179
1.68029E+18,1.271092041,-2.233190429,7.357974991,3.15648484
1.68029E+18,1.281166992,-1.822405981,7.442179461,2.711182912
1.68029E+18,1.291243164,-1.920621441,7.62587131,2.298232664
1.68029E+18,1.301318115,-1.977997525,7.445021991,2.252949461
1.68029E+18,1.311393066,-2.100126359,6.9751114,2.339209402
1.68029E+18,1.321468018,-2.4582033,6.920822176,2.444644
1.68029E+18,1.331543213,-2.759384049,6.956351755,2.645441443
1.68029E+18,1.341618164,-2.675597512,6.958085446,2.708038769
1.68029E+18,1.351694092,-1.898748631,7.095805818,2.70674493
1.68029E+18,1.361769043,-0.915033947,7.143881574,2.746813906
1.68029E+18,1.371843994,-0.689151308,7.28229402,2.378601355
1.68029E+18,1.381919189,-0.632101972,6.946257646,2.123487653
1.68029E+18,1.391994385,-0.63013564,6.837035055,2.023712105
1.68029E+18,1.402069092,-0.394511359,6.821949714,2.570809688
1.68029E+18,1.41214502,0.382054613,6.667633012,3.36462607
1.68029E+18,1.422220215,0.485095885,6.570090922,3.818350666
1.68029E+18,1.432295166,0.03363222,6.680403647,3.838220903
1.68029E+18,1.442370361,0.210638308,6.993304059,3.759420338
1.68029E+18,1.452445068,1.150403376,6.962146705,3.757576171
1.68029E+18,1.462520264,2.172933237,6.776160023,3.667828681
1.68029E+18,1.472596191,3.176500623,6.738710874,3.459433183
1.68029E+18,1.482671143,4.599551312,6.179107737,3.477746838
1.68029E+18,1.492746094,5.709487069,6.20278555,3.681443949
1.68029E+18,1.502821289,5.757791373,5.842081183,4.080988626
1.68029E+18,1.51289624,4.645298918,5.426856707,4.231858986
1.68029E+18,1.522971191,3.509999003,5.675923237,4.346999862
1.68029E+18,1.533047119,3.192658561,5.843426753,4.679041613
1.68029E+18,1.54312207,3.130211165,5.781579076,4.707393555
1.68029E+18,1.553197266,3.724689216,5.652573342,4.773588905
1.68029E+18,1.563272217,4.651790033,5.325637389,4.874053605
1.68029E+18,1.573346924,5.289693969,5.229509257,4.779081365
1.68029E+18,1.583422119,5.981175181,5.345438653,4.92803274
1.68029E+18,1.593498291,6.609003129,5.654228707,5.385873539
1.68029E+18,1.603573242,6.657602617,6.074747199,5.985294892
1.68029E+18,1.613647949,6.059188395,7.10489864,6.980020799
1.68029E+18,1.6237229,4.930010762,7.659342203,7.867155517
1.68029E+18,1.633798096,4.793924714,9.413809789,8.533399996
1.68029E+18,1.643873291,6.170844936,11.38102347,9.627753569
1.68029E+18,1.653949219,8.729382003,13.30386317,9.542148584
1.68029E+18,1.664023926,13.37116502,18.1663827,9.540727027
1.68029E+18,1.674099121,18.71455083,21.45590706,9.776077167
1.68029E+18,1.684174072,20.72671132,24.40851651,9.851630128
1.68029E+18,1.694249268,19.54718122,27.07895854,11.01317566
1.68029E+18,1.704323975,18.06607757,27.18601723,12.49893912
1.68029E+18,1.714400146,17.68015752,28.66300351,12.04710837
1.68029E+18,1.724475098,16.15532929,29.40868509,9.12565628
1.68029E+18,1.734550293,14.24492003,31.43750914,4.761710544
1.68029E+18,1.744625,11.82936228,35.20342936,3.112262544
1.68029E+18,1.754700195,7.052981991,39.41401642,3.967645155
1.68029E+18,1.764775146,2.558923728,43.22857354,5.385196663
1.68029E+18,1.774851074,-3.437143025,48.39251113,7.714778259
1.68029E+18,1.784926025,-4.32875518,58.4179921,12.26168052
1.68029E+18,1.795000488,-21.0225285,55.2358222,15.63546487
1.68029E+18,1.805075684,-33.44898223,65.08799476,-3.0599718
1.68029E+18,1.815150879,-30.26745764,75.75667427,24.3546306
1.68029E+18,1.825225586,-27.4849464,72.06590485,13.71108204
1.68029E+18,1.835301514,-29.06813329,73.69665546,8.073371917
1.68029E+18,1.845376709,-22.8391407,65.51687017,1.782104658
1.68029E+18,1.85545166,-17.19343783,54.66700758,-5.309042813
1.68029E+18,1.865526611,-14.4346231,43.29125767,-6.604529783
1.68029E+18,1.875601807,-14.69019478,32.51980987,-0.114840139
1.68029E+18,1.885676758,-15.35995048,20.4382825,-0.638086891
1.68029E+18,1.895752686,-13.9778777,9.964679,-2.042547446
1.68029E+18,1.905827881,-11.44312424,4.801349311,-3.137856419
1.68029E+18,1.915902588,-9.209773071,4.278642365,-3.675738723
1.68029E+18,1.925977783,-9.477811429,5.22932864,-4.514240634
1.68029E+18,1.936052734,-11.87073708,6.11656331,-5.284999674
1.68029E+18,1.946127441,-14.49386907,6.08268676,-6.139518654
1.68029E+18,1.956203613,-16.06358741,7.441122646,-6.324377209
1.68029E+18,1.966278564,-14.05649589,7.592884402,-6.760104375
1.68029E+18,1.97635376,-10.63577092,6.551165857,-7.050009697
1.68029E+18,1.986428955,-8.498667706,6.607083559,-7.236686115
1.68029E+18,1.996503418,-7.240941434,7.56724318,-7.349643801
1.68029E+18,2.006578613,-6.175435771,7.823881608,-7.639343371
1.68029E+18,2.016654785,-5.574172589,7.707448354,-7.707648261
1.68029E+18,2.026729736,-4.343659319,7.312659932,-7.00321872
1.68029E+18,2.036804688,-2.622266904,5.964226385,-6.213216927
1.68029E+18,2.046879639,-1.655854652,5.018029822,-5.418310997
1.68029E+18,2.05695459,-2.140970411,4.850265025,-4.844387073
1.68029E+18,2.067029785,-3.96658191,5.095006094,-4.451723973
1.68029E+18,2.077105957,-6.066037823,5.348700285,-4.279649788
1.68029E+18,2.087180664,-8.060734553,5.184343835,-4.0031911
1.68029E+18,2.097255615,-9.41978068,4.563162779,-3.688976683
1.68029E+18,2.107330566,-10.03969303,4.359515937,-3.171590054
1.68029E+18,2.117405518,-10.38086326,3.90293566,-2.725952612
1.68029E+18,2.127480713,-9.221233792,2.863715945,-2.880250316
1.68029E+18,2.137556641,-6.513954609,2.454130936,-2.89638955
1.68029E+18,2.147631592,-4.423059604,3.11294585,-2.869827706
1.68029E+18,2.157706787,-4.46989442,3.451801373,-3.135444098
1.68029E+18,2.167781494,-5.813911904,3.200549607,-3.36995691
1.68029E+18,2.177856689,-6.681079354,3.040263768,-3.219252554
1.68029E+18,2.187931885,-6.780218943,2.012744429,-2.767913392
1.68029E+18,2.198007568,-6.745693573,0.958892962,-2.314151972
1.68029E+18,2.20808252,-6.757600868,0.625813685,-1.961267924
1.68029E+18,2.218157715,-6.885914529,1.021211179,-1.786440349
1.68029E+18,2.228232666,-6.993349068,1.546937766,-1.644105177
1.68029E+18,2.238307861,-6.531034923,1.426390063,-1.42741999
1.68029E+18,2.248382568,-5.312689645,0.918611805,-1.130154515
1.68029E+18,2.258458496,-4.225214142,0.700398094,-0.696873134
1.68029E+18,2.268533691,-4.097728748,0.779080585,-0.406897378
1.68029E+18,2.278608643,-4.262269322,0.661647215,-0.227148275
1.68029E+18,2.288683594,-4.161765459,0.43077802,-0.088599344
1.68029E+18,2.298758789,-3.69305723,0.527099628,0.055120414
1.68029E+18,2.30883374,-3.22233766,0.804892487,0.136322926
1.68029E+18,2.318909668,-2.958933977,1.103416,0.120861445
1.68029E+18,2.328984863,-2.661755449,1.415929459,0.089257954
1.68029E+18,2.33905957,-2.137684229,1.604632122,0.085919749
1.68029E+18,2.349134766,-1.47616444,1.645813443,0.074855773
1.68029E+18,2.359209717,-0.883799435,1.687997218,0.00065671
1.68029E+18,2.369284424,-0.073505381,1.514783216,-0.064694737
1.68029E+18,2.379359619,0.853529385,1.428747147,-0.088535631
1.68029E+18,2.389435791,1.52453538,1.443868144,-0.088114337
1.68029E+18,2.399510742,1.89458742,1.525933556,-0.019007337
1.68029E+18,2.409585693,1.696273172,1.547214244,0.008136545
1.68029E+18,2.4196604,1.122265662,1.273251173,0.070814827
1.68029E+18,2.429735596,0.498188007,0.936439431,0.134579297
1.68029E+18,2.439811768,-0.192913851,0.81090108,0.182950383
1.68029E+18,2.449886719,-0.818536982,0.904091405,0.179304135
1.68029E+18,2.459961914,-0.715029261,0.97607586,0.146673201
1.68029E+18,2.470036621,0.24377953,1.001682303,0.340358182
1.68029E+18,2.480111572,0.812128284,1.209687194,0.664094754
1.68029E+18,2.490186768,0.745824797,1.194375497,0.749675627
1.68029E+18,2.500262939,0.296072612,1.002952177,0.769226569
1.68029E+18,2.510337646,-0.18426585,0.779950792,0.876490135
1.68029E+18,2.520412598,-0.521101849,0.685801998,1.108172985
1.68029E+18,2.530487793,-0.80362992,0.587015022,1.25670102
1.68029E+18,2.540562744,-1.29895903,0.544627978,1.203989859
1.68029E+18,2.550637695,-1.578808237,0.909689956,0.851624574
1.68029E+18,2.560713623,-1.366476569,1.616184613,0.507048336
1.68029E+18,2.570788574,-0.925674583,2.237049297,0.364337316
1.68029E+18,2.58086377,-0.088214875,2.271630342,0.317393779
1.68029E+18,2.590938477,0.982358594,1.871853903,0.378001246
1.68029E+18,2.601013672,1.965724903,1.350105134,0.601285685
1.68029E+18,2.611088867,2.066983384,1.117710336,0.829682353
1.68029E+18,2.621164551,1.219172377,1.060858861,0.832639157
1.68029E+18,2.631239502,0.320199922,1.0914862,0.747034026
1.68029E+18,2.641314697,-0.00371639,1.201760492,0.583534194
1.68029E+18,2.651389648,-0.117593529,1.259269848,0.337906844
1.68029E+18,2.661464844,-0.369967869,1.264402242,0.046881578
1.68029E+18,2.671539795,-0.232859492,1.139324787,-0.23288185
1.68029E+18,2.681615479,0.14322949,1.084943647,-0.378377532
1.68029E+18,2.691690674,0.817353909,1.055669914,-0.289034822
1.68029E+18,2.701765869,1.441656021,0.884527457,-0.247752233
1.68029E+18,2.71184082,1.615975061,0.600136077,-0.153991561
1.68029E+18,2.721915771,1.440968039,0.263073429,-0.202511116
1.68029E+18,2.731991699,1.07550391,0.031948505,-0.216419157
1.68029E+18,2.74206665,0.891392959,-0.362923212,-0.257164862
1.68029E+18,2.752141846,0.985330888,-0.711178723,-0.358789984
1.68029E+18,2.762216553,1.009388639,-0.752971454,-0.192386612
1.68029E+18,2.772291748,0.865588071,-0.564294217,-0.286438449
1.68029E+18,2.782366699,0.812325852,-0.460061982,-0.458604696
1.68029E+18,2.79244165,1.085410972,-0.618002427,-0.629849809
1.68029E+18,2.802517578,1.41748721,-0.857640912,-0.796253838
1.68029E+18,2.812592773,1.613229562,-1.152236437,-0.870672681
1.68029E+18,2.822667725,1.737943153,-1.370825996,-0.871979234
1.68029E+18,2.832742676,1.911982207,-1.530658539,-0.742750869
